"session","type","frame","period","group","subject","value","bid","won","earnings"
"S20041201","sealed","standard",1,0,0,315,210,0,0
"S20041201","sealed","standard",1,0,5,570,500,1,70
"S20041201","sealed","standard",1,0,8,390,320,0,0
"S20041201","sealed","standard",1,1,2,240,220,0,0
"S20041201","sealed","standard",1,1,6,510,480,1,30
"S20041201","sealed","standard",1,1,7,555,460,0,0
"S20041201","sealed","standard",1,2,1,30,20,0,0
"S20041201","sealed","standard",1,2,3,345,300,1,45
"S20041201","sealed","standard",1,2,4,285,250,0,0
"S20041201","sealed","standard",1,3,12,75,40,0,0
"S20041201","sealed","standard",1,3,13,420,330,0,0
"S20041201","sealed","standard",1,3,17,585,530,1,55
"S20041201","sealed","standard",1,4,10,450,380,1,70
"S20041201","sealed","standard",1,4,11,75,50,0,0
"S20041201","sealed","standard",1,4,16,390,350,0,0
"S20041201","sealed","standard",1,5,9,600,500,1,100
"S20041201","sealed","standard",1,5,14,570,400,0,0
"S20041201","sealed","standard",1,5,15,15,10,0,0
"S20041201","sealed","standard",2,0,0,525,400,1,125
"S20041201","sealed","standard",2,0,2,15,10,0,0
"S20041201","sealed","standard",2,0,5,330,230,0,0
"S20041201","sealed","standard",2,1,3,165,100,0,0
"S20041201","sealed","standard",2,1,4,210,170,1,40
"S20041201","sealed","standard",2,1,7,90,80,0,0
"S20041201","sealed","standard",2,2,1,540,470,1,70
"S20041201","sealed","standard",2,2,6,435,400,0,0
"S20041201","sealed","standard",2,2,8,75,200,0,0
"S20041201","sealed","standard",2,3,9,45,40,0,0
"S20041201","sealed","standard",2,3,11,480,440,1,40
"S20041201","sealed","standard",2,3,17,135,130,0,0
"S20041201","sealed","standard",2,4,10,240,170,0,0
"S20041201","sealed","standard",2,4,13,300,250,0,0
"S20041201","sealed","standard",2,4,15,585,500,1,85
"S20041201","sealed","standard",2,5,12,570,580,1,-10
"S20041201","sealed","standard",2,5,14,45,10,0,0
"S20041201","sealed","standard",2,5,16,150,130,0,0
"S20041201","sealed","standard",3,0,1,60,50,0,0
"S20041201","sealed","standard",3,0,5,345,300,1,45
"S20041201","sealed","standard",3,0,7,60,50,0,0
"S20041201","sealed","standard",3,1,3,45,20,0,0
"S20041201","sealed","standard",3,1,4,375,300,0,0
"S20041201","sealed","standard",3,1,8,255,460,1,-205
"S20041201","sealed","standard",3,2,0,195,180,0,0
"S20041201","sealed","standard",3,2,2,120,100,0,0
"S20041201","sealed","standard",3,2,6,345,250,1,95
"S20041201","sealed","standard",3,3,12,330,300,0,0
"S20041201","sealed","standard",3,3,15,405,350,1,55
"S20041201","sealed","standard",3,3,16,345,310,0,0
"S20041201","sealed","standard",3,4,9,255,150,0,0
"S20041201","sealed","standard",3,4,10,270,350,1,-80
"S20041201","sealed","standard",3,4,13,285,200,0,0
"S20041201","sealed","standard",3,5,11,405,380,0,0
"S20041201","sealed","standard",3,5,14,600,500,1,100
"S20041201","sealed","standard",3,5,17,285,280,0,0
"S20041201","sealed","standard",4,0,0,360,300,0,0
"S20041201","sealed","standard",4,0,1,360,270,0,0
"S20041201","sealed","standard",4,0,3,420,350,1,70
"S20041201","sealed","standard",4,1,2,75,60,0,0
"S20041201","sealed","standard",4,1,4,495,400,1,95
"S20041201","sealed","standard",4,1,6,105,50,0,0
"S20041201","sealed","standard",4,2,5,600,530,1,70
"S20041201","sealed","standard",4,2,7,75,70,0,0
"S20041201","sealed","standard",4,2,8,330,320,0,0
"S20041201","sealed","standard",4,3,9,255,230,0,0
"S20041201","sealed","standard",4,3,14,30,10,0,0
"S20041201","sealed","standard",4,3,16,285,270,1,15
"S20041201","sealed","standard",4,4,10,360,260,0,0
"S20041201","sealed","standard",4,4,15,465,400,1,65
"S20041201","sealed","standard",4,4,17,105,100,0,0
"S20041201","sealed","standard",4,5,11,435,400,0,0
"S20041201","sealed","standard",4,5,12,525,580,1,-55
"S20041201","sealed","standard",4,5,13,585,490,0,0
"S20041201","sealed","standard",5,0,0,300,270,0,0
"S20041201","sealed","standard",5,0,5,495,420,0,0
"S20041201","sealed","standard",5,0,8,600,490,1,110
"S20041201","sealed","standard",5,1,2,330,310,0,0
"S20041201","sealed","standard",5,1,4,495,400,0,0
"S20041201","sealed","standard",5,1,7,525,450,1,75
"S20041201","sealed","standard",5,2,1,345,330,1,15
"S20041201","sealed","standard",5,2,3,360,300,0,0
"S20041201","sealed","standard",5,2,6,390,300,0,0
"S20041201","sealed","standard",5,3,9,555,440,1,115
"S20041201","sealed","standard",5,3,13,180,170,0,0
"S20041201","sealed","standard",5,3,17,375,370,0,0
"S20041201","sealed","standard",5,4,14,225,200,0,0
"S20041201","sealed","standard",5,4,15,375,300,0,0
"S20041201","sealed","standard",5,4,16,585,450,1,135
"S20041201","sealed","standard",5,5,10,180,600,1,-420
"S20041201","sealed","standard",5,5,11,285,260,0,0
"S20041201","sealed","standard",5,5,12,375,200,0,0
"S20041201","sealed","standard",6,0,2,345,360,0,0
"S20041201","sealed","standard",6,0,5,30,20,0,0
"S20041201","sealed","standard",6,0,8,510,470,1,40
"S20041201","sealed","standard",6,1,1,450,400,0,0
"S20041201","sealed","standard",6,1,4,435,400,1,35
"S20041201","sealed","standard",6,1,6,345,300,0,0
"S20041201","sealed","standard",6,2,0,135,130,0,0
"S20041201","sealed","standard",6,2,3,105,70,0,0
"S20041201","sealed","standard",6,2,7,195,150,1,45
"S20041201","sealed","standard",6,3,11,255,200,0,0
"S20041201","sealed","standard",6,3,12,390,400,1,-10
"S20041201","sealed","standard",6,3,14,180,160,0,0
"S20041201","sealed","standard",6,4,13,165,160,0,0
"S20041201","sealed","standard",6,4,15,570,500,1,70
"S20041201","sealed","standard",6,4,16,510,450,0,0
"S20041201","sealed","standard",6,5,9,75,70,0,0
"S20041201","sealed","standard",6,5,10,465,350,1,115
"S20041201","sealed","standard",6,5,17,315,310,0,0
"S20041201","sealed","standard",7,0,0,210,200,0,0
"S20041201","sealed","standard",7,0,1,255,230,0,0
"S20041201","sealed","standard",7,0,4,555,460,1,95
"S20041201","sealed","standard",7,1,2,585,560,1,25
"S20041201","sealed","standard",7,1,3,435,380,0,0
"S20041201","sealed","standard",7,1,6,75,50,0,0
"S20041201","sealed","standard",7,2,5,180,220,1,-40
"S20041201","sealed","standard",7,2,7,30,20,0,0
"S20041201","sealed","standard",7,2,8,195,180,0,0
"S20041201","sealed","standard",7,3,11,60,50,0,0
"S20041201","sealed","standard",7,3,14,570,520,1,50
"S20041201","sealed","standard",7,3,17,450,400,0,0
"S20041201","sealed","standard",7,4,9,150,140,0,0
"S20041201","sealed","standard",7,4,12,105,90,0,0
"S20041201","sealed","standard",7,4,16,570,470,1,100
"S20041201","sealed","standard",7,5,10,30,100,0,0
"S20041201","sealed","standard",7,5,13,405,390,1,15
"S20041201","sealed","standard",7,5,15,150,100,0,0
"S20041201","sealed","standard",8,0,3,180,130,0,0
"S20041201","sealed","standard",8,0,4,210,200,0,0
"S20041201","sealed","standard",8,0,7,450,250,1,200
"S20041201","sealed","standard",8,1,0,90,80,0,0
"S20041201","sealed","standard",8,1,1,225,210,0,0
"S20041201","sealed","standard",8,1,6,540,450,1,90
"S20041201","sealed","standard",8,2,2,570,550,1,20
"S20041201","sealed","standard",8,2,5,45,100,0,0
"S20041201","sealed","standard",8,2,8,375,310,0,0
"S20041201","sealed","standard",8,3,13,405,400,0,0
"S20041201","sealed","standard",8,3,16,525,480,1,45
"S20041201","sealed","standard",8,3,17,75,70,0,0
"S20041201","sealed","standard",8,4,9,165,160,0,0
"S20041201","sealed","standard",8,4,10,600,490,1,110
"S20041201","sealed","standard",8,4,11,75,150,0,0
"S20041201","sealed","standard",8,5,12,405,390,1,15
"S20041201","sealed","standard",8,5,14,255,220,0,0
"S20041201","sealed","standard",8,5,15,435,350,0,0
"S20041201","sealed","standard",9,0,3,510,450,1,60
"S20041201","sealed","standard",9,0,5,15,150,0,0
"S20041201","sealed","standard",9,0,7,525,300,0,0
"S20041201","sealed","standard",9,1,1,135,100,0,0
"S20041201","sealed","standard",9,1,4,225,200,0,0
"S20041201","sealed","standard",9,1,6,540,450,1,90
"S20041201","sealed","standard",9,2,0,240,220,0,0
"S20041201","sealed","standard",9,2,2,15,10,0,0
"S20041201","sealed","standard",9,2,8,525,450,1,75
"S20041201","sealed","standard",9,3,9,270,250,0,0
"S20041201","sealed","standard",9,3,10,90,70,0,0
"S20041201","sealed","standard",9,3,16,375,350,1,25
"S20041201","sealed","standard",9,4,11,210,180,0,0
"S20041201","sealed","standard",9,4,13,405,370,1,35
"S20041201","sealed","standard",9,4,15,240,200,0,0
"S20041201","sealed","standard",9,5,12,360,350,1,10
"S20041201","sealed","standard",9,5,14,345,320,0,0
"S20041201","sealed","standard",9,5,17,60,60,0,0
"S20041201","sealed","standard",10,0,2,195,170,0,0
"S20041201","sealed","standard",10,0,7,165,110,0,0
"S20041201","sealed","standard",10,0,8,390,360,1,30
"S20041201","sealed","standard",10,1,1,375,330,1,45
"S20041201","sealed","standard",10,1,3,30,10,0,0
"S20041201","sealed","standard",10,1,4,240,210,0,0
"S20041201","sealed","standard",10,2,0,45,40,0,0
"S20041201","sealed","standard",10,2,5,375,350,0,0
"S20041201","sealed","standard",10,2,6,570,450,1,120
"S20041201","sealed","standard",10,3,10,60,40,0,0
"S20041201","sealed","standard",10,3,11,180,250,0,0
"S20041201","sealed","standard",10,3,17,435,410,1,25
"S20041201","sealed","standard",10,4,12,165,10,0,0
"S20041201","sealed","standard",10,4,15,390,350,1,40
"S20041201","sealed","standard",10,4,16,75,70,0,0
"S20041201","sealed","standard",10,5,9,135,130,0,0
"S20041201","sealed","standard",10,5,13,165,160,0,0
"S20041201","sealed","standard",10,5,14,300,270,1,30
"S20041201","sealed","standard",11,0,1,30,10,0,0
"S20041201","sealed","standard",11,0,3,435,390,1,45
"S20041201","sealed","standard",11,0,4,315,280,0,0
"S20041201","sealed","standard",11,1,2,495,480,1,15
"S20041201","sealed","standard",11,1,5,420,390,0,0
"S20041201","sealed","standard",11,1,7,480,350,0,0
"S20041201","sealed","standard",11,2,0,540,480,1,60
"S20041201","sealed","standard",11,2,6,480,450,0,0
"S20041201","sealed","standard",11,2,8,360,330,0,0
"S20041201","sealed","standard",11,3,9,270,250,0,0
"S20041201","sealed","standard",11,3,12,480,10,0,0
"S20041201","sealed","standard",11,3,17,555,470,1,85
"S20041201","sealed","standard",11,4,10,15,10,0,0
"S20041201","sealed","standard",11,4,11,435,410,1,25
"S20041201","sealed","standard",11,4,15,420,350,0,0
"S20041201","sealed","standard",11,5,13,450,390,1,60
"S20041201","sealed","standard",11,5,14,390,350,0,0
"S20041201","sealed","standard",11,5,16,255,220,0,0
"S20041201","sealed","standard",12,0,0,105,90,0,0
"S20041201","sealed","standard",12,0,2,540,520,1,20
"S20041201","sealed","standard",12,0,4,465,410,0,0
"S20041201","sealed","standard",12,1,5,435,400,1,35
"S20041201","sealed","standard",12,1,6,345,300,0,0
"S20041201","sealed","standard",12,1,7,585,350,0,0
"S20041201","sealed","standard",12,2,1,210,180,0,0
"S20041201","sealed","standard",12,2,3,165,110,0,0
"S20041201","sealed","standard",12,2,8,210,180,1,30
"S20041201","sealed","standard",12,3,11,555,490,1,65
"S20041201","sealed","standard",12,3,13,150,140,0,0
"S20041201","sealed","standard",12,3,14,90,70,0,0
"S20041201","sealed","standard",12,4,12,75,10,0,0
"S20041201","sealed","standard",12,4,16,375,300,1,75
"S20041201","sealed","standard",12,4,17,150,140,0,0
"S20041201","sealed","standard",12,5,9,225,220,0,0
"S20041201","sealed","standard",12,5,10,165,120,0,0
"S20041201","sealed","standard",12,5,15,495,450,1,45
"S20041201","sealed","standard",13,0,0,555,460,1,95
"S20041201","sealed","standard",13,0,1,375,340,0,0
"S20041201","sealed","standard",13,0,6,120,50,0,0
"S20041201","sealed","standard",13,1,3,600,510,1,90
"S20041201","sealed","standard",13,1,5,30,20,0,0
"S20041201","sealed","standard",13,1,8,555,420,0,0
"S20041201","sealed","standard",13,2,2,465,440,1,25
"S20041201","sealed","standard",13,2,4,510,440,0,0
"S20041201","sealed","standard",13,2,7,375,300,0,0
"S20041201","sealed","standard",13,3,9,465,400,1,65
"S20041201","sealed","standard",13,3,10,15,20,0,0
"S20041201","sealed","standard",13,3,15,60,10,0,0
"S20041201","sealed","standard",13,4,14,345,320,0,0
"S20041201","sealed","standard",13,4,16,480,400,1,80
"S20041201","sealed","standard",13,4,17,360,330,0,0
"S20041201","sealed","standard",13,5,11,135,240,1,-105
"S20041201","sealed","standard",13,5,12,495,10,0,0
"S20041201","sealed","standard",13,5,13,195,190,0,0
"S20041201","sealed","standard",14,0,3,450,400,1,50
"S20041201","sealed","standard",14,0,4,255,240,0,0
"S20041201","sealed","standard",14,0,7,300,150,0,0
"S20041201","sealed","standard",14,1,0,15,10,0,0
"S20041201","sealed","standard",14,1,1,195,180,0,0
"S20041201","sealed","standard",14,1,8,315,260,1,55
"S20041201","sealed","standard",14,2,2,180,160,1,20
"S20041201","sealed","standard",14,2,5,105,80,0,0
"S20041201","sealed","standard",14,2,6,60,100,0,0
"S20041201","sealed","standard",14,3,10,315,240,0,0
"S20041201","sealed","standard",14,3,11,495,450,1,45
"S20041201","sealed","standard",14,3,17,345,330,0,0
"S20041201","sealed","standard",14,4,14,240,220,1,20
"S20041201","sealed","standard",14,4,15,225,200,0,0
"S20041201","sealed","standard",14,4,16,75,60,0,0
"S20041201","sealed","standard",14,5,9,555,450,0,0
"S20041201","sealed","standard",14,5,12,360,250,0,0
"S20041201","sealed","standard",14,5,13,555,450,1,105
"S20041201","sealed","standard",15,0,0,600,450,0,0
"S20041201","sealed","standard",15,0,4,465,400,0,0
"S20041201","sealed","standard",15,0,6,510,450,1,60
"S20041201","sealed","standard",15,1,2,330,310,1,20
"S20041201","sealed","standard",15,1,3,195,160,0,0
"S20041201","sealed","standard",15,1,8,120,90,0,0
"S20041201","sealed","standard",15,2,1,495,440,1,55
"S20041201","sealed","standard",15,2,5,195,170,0,0
"S20041201","sealed","standard",15,2,7,255,200,0,0
"S20041201","sealed","standard",15,3,11,255,250,0,0
"S20041201","sealed","standard",15,3,15,600,550,1,50
"S20041201","sealed","standard",15,3,16,450,350,0,0
"S20041201","sealed","standard",15,4,12,225,100,0,0
"S20041201","sealed","standard",15,4,13,570,460,1,110
"S20041201","sealed","standard",15,4,17,285,280,0,0
"S20041201","sealed","standard",15,5,9,375,350,0,0
"S20041201","sealed","standard",15,5,10,165,120,0,0
"S20041201","sealed","standard",15,5,14,585,520,1,65
"S20041201","sealed","standard",16,0,3,330,290,1,40
"S20041201","sealed","standard",16,0,5,165,130,0,0
"S20041201","sealed","standard",16,0,7,210,160,0,0
"S20041201","sealed","standard",16,1,1,375,360,1,15
"S20041201","sealed","standard",16,1,6,165,200,0,0
"S20041201","sealed","standard",16,1,8,210,170,0,0
"S20041201","sealed","standard",16,2,0,600,450,0,0
"S20041201","sealed","standard",16,2,2,525,500,1,25
"S20041201","sealed","standard",16,2,4,195,180,0,0
"S20041201","sealed","standard",16,3,13,180,170,0,0
"S20041201","sealed","standard",16,3,14,510,490,1,20
"S20041201","sealed","standard",16,3,16,420,360,0,0
"S20041201","sealed","standard",16,4,9,240,230,0,0
"S20041201","sealed","standard",16,4,10,525,410,1,115
"S20041201","sealed","standard",16,4,17,390,380,0,0
"S20041201","sealed","standard",16,5,11,585,510,1,75
"S20041201","sealed","standard",16,5,12,570,10,0,0
"S20041201","sealed","standard",16,5,15,330,300,0,0
"S20041201","sealed","standard",17,0,3,150,100,0,0
"S20041201","sealed","standard",17,0,5,330,300,1,30
"S20041201","sealed","standard",17,0,6,120,150,0,0
"S20041201","sealed","standard",17,1,0,315,300,0,0
"S20041201","sealed","standard",17,1,1,315,310,1,5
"S20041201","sealed","standard",17,1,8,60,40,0,0
"S20041201","sealed","standard",17,2,2,360,330,0,0
"S20041201","sealed","standard",17,2,4,315,280,0,0
"S20041201","sealed","standard",17,2,7,405,330,1,75
"S20041201","sealed","standard",17,3,9,360,340,0,0
"S20041201","sealed","standard",17,3,10,525,400,1,125
"S20041201","sealed","standard",17,3,13,60,50,0,0
"S20041201","sealed","standard",17,4,14,555,500,1,55
"S20041201","sealed","standard",17,4,15,495,450,0,0
"S20041201","sealed","standard",17,4,17,60,50,0,0
"S20041201","sealed","standard",17,5,11,585,490,1,95
"S20041201","sealed","standard",17,5,12,150,10,0,0
"S20041201","sealed","standard",17,5,16,150,130,0,0
"S20041201","sealed","standard",18,0,3,540,490,1,50
"S20041201","sealed","standard",18,0,5,60,50,0,0
"S20041201","sealed","standard",18,0,8,195,160,0,0
"S20041201","sealed","standard",18,1,0,345,300,1,45
"S20041201","sealed","standard",18,1,1,225,190,0,0
"S20041201","sealed","standard",18,1,2,315,290,0,0
"S20041201","sealed","standard",18,2,4,75,70,0,0
"S20041201","sealed","standard",18,2,6,405,300,1,105
"S20041201","sealed","standard",18,2,7,285,250,0,0
"S20041201","sealed","standard",18,3,13,330,310,1,20
"S20041201","sealed","standard",18,3,14,225,200,0,0
"S20041201","sealed","standard",18,3,17,75,70,0,0
"S20041201","sealed","standard",18,4,9,240,230,0,0
"S20041201","sealed","standard",18,4,11,585,430,1,155
"S20041201","sealed","standard",18,4,12,210,10,0,0
"S20041201","sealed","standard",18,5,10,570,450,1,120
"S20041201","sealed","standard",18,5,15,75,50,0,0
"S20041201","sealed","standard",18,5,16,585,450,0,0
"S20041201","sealed","standard",19,0,0,270,260,0,0
"S20041201","sealed","standard",19,0,7,255,200,0,0
"S20041201","sealed","standard",19,0,8,420,380,1,40
"S20041201","sealed","standard",19,1,1,555,470,0,0
"S20041201","sealed","standard",19,1,4,570,470,1,100
"S20041201","sealed","standard",19,1,6,465,350,0,0
"S20041201","sealed","standard",19,2,2,270,250,0,0
"S20041201","sealed","standard",19,2,3,495,430,0,0
"S20041201","sealed","standard",19,2,5,555,460,1,95
"S20041201","sealed","standard",19,3,13,510,410,1,100
"S20041201","sealed","standard",19,3,14,60,50,0,0
"S20041201","sealed","standard",19,3,15,300,250,0,0
"S20041201","sealed","standard",19,4,10,165,130,0,0
"S20041201","sealed","standard",19,4,12,60,10,0,0
"S20041201","sealed","standard",19,4,16,510,410,1,100
"S20041201","sealed","standard",19,5,9,270,260,1,10
"S20041201","sealed","standard",19,5,11,60,100,0,0
"S20041201","sealed","standard",19,5,17,240,230,0,0
"S20041201","sealed","standard",20,0,1,105,90,0,0
"S20041201","sealed","standard",20,0,3,165,100,0,0
"S20041201","sealed","standard",20,0,8,375,320,1,55
"S20041201","sealed","standard",20,1,4,165,150,0,0
"S20041201","sealed","standard",20,1,6,420,350,1,70
"S20041201","sealed","standard",20,1,7,105,90,0,0
"S20041201","sealed","standard",20,2,0,525,460,1,65
"S20041201","sealed","standard",20,2,2,120,100,0,0
"S20041201","sealed","standard",20,2,5,150,50,0,0
"S20041201","sealed","standard",20,3,9,285,270,0,0
"S20041201","sealed","standard",20,3,13,75,70,0,0
"S20041201","sealed","standard",20,3,16,555,410,1,145
"S20041201","sealed","standard",20,4,10,585,500,1,85
"S20041201","sealed","standard",20,4,11,600,420,0,0
"S20041201","sealed","standard",20,4,14,75,60,0,0
"S20041201","sealed","standard",20,5,12,165,10,0,0
"S20041201","sealed","standard",20,5,15,180,150,0,0
"S20041201","sealed","standard",20,5,17,300,290,1,10
"S20041201","sealed","standard",21,0,0,75,70,0,0
"S20041201","sealed","standard",21,0,2,60,40,0,0
"S20041201","sealed","standard",21,0,5,180,100,1,80
"S20041201","sealed","standard",21,1,4,330,310,1,20
"S20041201","sealed","standard",21,1,7,300,250,0,0
"S20041201","sealed","standard",21,1,8,405,300,0,0
"S20041201","sealed","standard",21,2,1,240,220,0,0
"S20041201","sealed","standard",21,2,3,540,480,1,60
"S20041201","sealed","standard",21,2,6,135,150,0,0
"S20041201","sealed","standard",21,3,9,480,400,1,80
"S20041201","sealed","standard",21,3,10,75,50,0,0
"S20041201","sealed","standard",21,3,12,240,10,0,0
"S20041201","sealed","standard",21,4,11,150,190,0,0
"S20041201","sealed","standard",21,4,14,465,410,1,55
"S20041201","sealed","standard",21,4,16,510,410,0,0
"S20041201","sealed","standard",21,5,13,435,400,1,35
"S20041201","sealed","standard",21,5,15,255,210,0,0
"S20041201","sealed","standard",21,5,17,195,190,0,0
"S20041201","sealed","standard",22,0,2,285,270,1,15
"S20041201","sealed","standard",22,0,5,105,40,0,0
"S20041201","sealed","standard",22,0,6,90,50,0,0
"S20041201","sealed","standard",22,1,1,210,190,0,0
"S20041201","sealed","standard",22,1,7,390,300,1,90
"S20041201","sealed","standard",22,1,8,30,20,0,0
"S20041201","sealed","standard",22,2,0,60,50,0,0
"S20041201","sealed","standard",22,2,3,225,180,1,45
"S20041201","sealed","standard",22,2,4,30,20,0,0
"S20041201","sealed","standard",22,3,11,360,340,0,0
"S20041201","sealed","standard",22,3,14,75,60,0,0
"S20041201","sealed","standard",22,3,15,540,500,1,40
"S20041201","sealed","standard",22,4,10,525,430,1,95
"S20041201","sealed","standard",22,4,16,405,360,0,0
"S20041201","sealed","standard",22,4,17,240,230,0,0
"S20041201","sealed","standard",22,5,9,285,270,0,0
"S20041201","sealed","standard",22,5,12,435,10,0,0
"S20041201","sealed","standard",22,5,13,495,410,1,85
"S20041201","sealed","standard",23,0,4,60,50,0,0
"S20041201","sealed","standard",23,0,7,360,250,0,0
"S20041201","sealed","standard",23,0,8,450,330,1,120
"S20041201","sealed","standard",23,1,0,165,150,0,0
"S20041201","sealed","standard",23,1,1,495,450,1,45
"S20041201","sealed","standard",23,1,2,90,70,0,0
"S20041201","sealed","standard",23,2,3,480,420,1,60
"S20041201","sealed","standard",23,2,5,105,50,0,0
"S20041201","sealed","standard",23,2,6,105,70,0,0
"S20041201","sealed","standard",23,3,10,495,400,0,0
"S20041201","sealed","standard",23,3,12,435,410,1,25
"S20041201","sealed","standard",23,3,13,180,170,0,0
"S20041201","sealed","standard",23,4,9,435,400,1,35
"S20041201","sealed","standard",23,4,14,300,280,0,0
"S20041201","sealed","standard",23,4,15,195,150,0,0
"S20041201","sealed","standard",23,5,11,90,150,0,0
"S20041201","sealed","standard",23,5,16,540,420,1,120
"S20041201","sealed","standard",23,5,17,465,400,0,0
"S20041201","sealed","standard",24,0,0,450,400,1,50
"S20041201","sealed","standard",24,0,4,360,340,0,0
"S20041201","sealed","standard",24,0,8,465,400,0,0
"S20041201","sealed","standard",24,1,1,390,350,1,40
"S20041201","sealed","standard",24,1,6,75,100,0,0
"S20041201","sealed","standard",24,1,7,300,200,0,0
"S20041201","sealed","standard",24,2,2,135,120,0,0
"S20041201","sealed","standard",24,2,3,345,300,0,0
"S20041201","sealed","standard",24,2,5,435,350,1,85
"S20041201","sealed","standard",24,3,14,75,60,0,0
"S20041201","sealed","standard",24,3,16,90,80,0,0
"S20041201","sealed","standard",24,3,17,405,390,1,15
"S20041201","sealed","standard",24,4,9,330,300,0,0
"S20041201","sealed","standard",24,4,13,420,380,0,0
"S20041201","sealed","standard",24,4,15,465,420,1,45
"S20041201","sealed","standard",24,5,10,435,350,1,85
"S20041201","sealed","standard",24,5,11,195,220,0,0
"S20041201","sealed","standard",24,5,12,390,290,0,0
"S20041201","sealed","standard",25,0,5,420,350,1,70
"S20041201","sealed","standard",25,0,6,150,100,0,0
"S20041201","sealed","standard",25,0,7,420,200,0,0
"S20041201","sealed","standard",25,1,0,510,460,1,50
"S20041201","sealed","standard",25,1,2,285,260,0,0
"S20041201","sealed","standard",25,1,4,555,460,0,0
"S20041201","sealed","standard",25,2,1,285,250,0,0
"S20041201","sealed","standard",25,2,3,540,470,1,70
"S20041201","sealed","standard",25,2,8,90,70,0,0
"S20041201","sealed","standard",25,3,14,495,410,1,85
"S20041201","sealed","standard",25,3,15,60,40,0,0
"S20041201","sealed","standard",25,3,16,345,310,0,0
"S20041201","sealed","standard",25,4,10,60,50,0,0
"S20041201","sealed","standard",25,4,11,270,280,1,-10
"S20041201","sealed","standard",25,4,12,210,110,0,0
"S20041201","sealed","standard",25,5,9,180,170,0,0
"S20041201","sealed","standard",25,5,13,480,400,1,80
"S20041201","sealed","standard",25,5,17,225,220,0,0
"S20041201","sealed","standard",26,0,6,15,50,0,0
"S20041201","sealed","standard",26,0,7,270,230,0,0
"S20041201","sealed","standard",26,0,8,465,280,1,185
"S20041201","sealed","standard",26,1,0,495,440,1,55
"S20041201","sealed","standard",26,1,1,210,150,0,0
"S20041201","sealed","standard",26,1,3,375,340,0,0
"S20041201","sealed","standard",26,2,2,135,110,0,0
"S20041201","sealed","standard",26,2,4,450,400,1,50
"S20041201","sealed","standard",26,2,5,135,40,0,0
"S20041201","sealed","standard",26,3,10,135,100,0,0
"S20041201","sealed","standard",26,3,11,180,190,1,-10
"S20041201","sealed","standard",26,3,16,120,100,0,0
"S20041201","sealed","standard",26,4,9,165,160,1,5
"S20041201","sealed","standard",26,4,13,15,10,0,0
"S20041201","sealed","standard",26,4,17,120,110,0,0
"S20041201","sealed","standard",26,5,12,525,430,1,95
"S20041201","sealed","standard",26,5,14,525,410,0,0
"S20041201","sealed","standard",26,5,15,360,310,0,0
"S20041201","sealed","standard",27,0,3,375,330,1,45
"S20041201","sealed","standard",27,0,4,330,310,0,0
"S20041201","sealed","standard",27,0,7,300,270,0,0
"S20041201","sealed","standard",27,1,1,165,140,0,0
"S20041201","sealed","standard",27,1,2,480,450,1,30
"S20041201","sealed","standard",27,1,6,195,150,0,0
"S20041201","sealed","standard",27,2,0,345,320,0,0
"S20041201","sealed","standard",27,2,5,315,250,0,0
"S20041201","sealed","standard",27,2,8,420,380,1,40
"S20041201","sealed","standard",27,3,9,60,50,0,0
"S20041201","sealed","standard",27,3,14,30,20,0,0
"S20041201","sealed","standard",27,3,15,315,280,1,35
"S20041201","sealed","standard",27,4,11,75,90,0,0
"S20041201","sealed","standard",27,4,12,510,410,1,100
"S20041201","sealed","standard",27,4,17,60,50,0,0
"S20041201","sealed","standard",27,5,10,285,220,0,0
"S20041201","sealed","standard",27,5,13,585,440,1,145
"S20041201","sealed","standard",27,5,16,300,270,0,0
"S20041201","sealed","standard",28,0,0,165,150,0,0
"S20041201","sealed","standard",28,0,2,270,250,0,0
"S20041201","sealed","standard",28,0,3,345,300,1,45
"S20041201","sealed","standard",28,1,1,120,90,0,0
"S20041201","sealed","standard",28,1,6,600,450,1,150
"S20041201","sealed","standard",28,1,7,225,150,0,0
"S20041201","sealed","standard",28,2,4,315,290,1,25
"S20041201","sealed","standard",28,2,5,30,10,0,0
"S20041201","sealed","standard",28,2,8,30,10,0,0
"S20041201","sealed","standard",28,3,11,165,180,0,0
"S20041201","sealed","standard",28,3,14,105,90,0,0
"S20041201","sealed","standard",28,3,17,315,310,1,5
"S20041201","sealed","standard",28,4,10,420,160,0,0
"S20041201","sealed","standard",28,4,15,165,130,0,0
"S20041201","sealed","standard",28,4,16,435,390,1,45
"S20041201","sealed","standard",28,5,9,300,280,0,0
"S20041201","sealed","standard",28,5,12,120,20,0,0
"S20041201","sealed","standard",28,5,13,585,430,1,155
"S20041201","sealed","standard",29,0,2,495,470,1,25
"S20041201","sealed","standard",29,0,3,525,440,0,0
"S20041201","sealed","standard",29,0,6,375,300,0,0
"S20041201","sealed","standard",29,1,1,240,200,0,0
"S20041201","sealed","standard",29,1,4,120,100,0,0
"S20041201","sealed","standard",29,1,7,570,370,1,200
"S20041201","sealed","standard",29,2,0,255,220,0,0
"S20041201","sealed","standard",29,2,5,405,330,0,0
"S20041201","sealed","standard",29,2,8,525,380,1,145
"S20041201","sealed","standard",29,3,9,540,440,1,100
"S20041201","sealed","standard",29,3,10,450,400,0,0
"S20041201","sealed","standard",29,3,17,105,100,0,0
"S20041201","sealed","standard",29,4,12,555,450,1,105
"S20041201","sealed","standard",29,4,14,555,440,0,0
"S20041201","sealed","standard",29,4,16,525,420,0,0
"S20041201","sealed","standard",29,5,11,600,420,1,180
"S20041201","sealed","standard",29,5,13,75,70,0,0
"S20041201","sealed","standard",29,5,15,150,110,0,0
"S20041201","sealed","standard",30,0,0,510,450,1,60
"S20041201","sealed","standard",30,0,2,150,120,0,0
"S20041201","sealed","standard",30,0,6,270,200,0,0
"S20041201","sealed","standard",30,1,3,75,50,0,0
"S20041201","sealed","standard",30,1,5,480,400,1,80
"S20041201","sealed","standard",30,1,8,270,220,0,0
"S20041201","sealed","standard",30,2,1,510,440,1,70
"S20041201","sealed","standard",30,2,4,405,370,0,0
"S20041201","sealed","standard",30,2,7,150,140,0,0
"S20041201","sealed","standard",30,3,9,150,140,0,0
"S20041201","sealed","standard",30,3,10,465,420,1,45
"S20041201","sealed","standard",30,3,15,90,130,0,0
"S20041201","sealed","standard",30,4,12,90,10,0,0
"S20041201","sealed","standard",30,4,14,240,220,0,0
"S20041201","sealed","standard",30,4,16,405,350,1,55
"S20041201","sealed","standard",30,5,11,405,380,1,25
"S20041201","sealed","standard",30,5,13,315,290,0,0
"S20041201","sealed","standard",30,5,17,390,370,0,0
"S20041201","sealed","standard",31,0,4,495,420,1,75
"S20041201","sealed","standard",31,0,6,135,100,0,0
"S20041201","sealed","standard",31,0,8,180,150,0,0
"S20041201","sealed","standard",31,1,1,465,410,0,0
"S20041201","sealed","standard",31,1,2,600,540,1,60
"S20041201","sealed","standard",31,1,7,405,330,0,0
"S20041201","sealed","standard",31,2,0,120,110,0,0
"S20041201","sealed","standard",31,2,3,225,190,0,0
"S20041201","sealed","standard",31,2,5,405,300,1,105
"S20041201","sealed","standard",31,3,11,540,420,1,120
"S20041201","sealed","standard",31,3,13,120,110,0,0
"S20041201","sealed","standard",31,3,14,210,200,0,0
"S20041201","sealed","standard",31,4,9,285,270,0,0
"S20041201","sealed","standard",31,4,16,210,200,0,0
"S20041201","sealed","standard",31,4,17,525,420,1,105
"S20041201","sealed","standard",31,5,10,90,50,0,0
"S20041201","sealed","standard",31,5,12,30,10,0,0
"S20041201","sealed","standard",31,5,15,270,230,1,40
"S20041201","sealed","standard",32,0,2,570,530,1,40
"S20041201","sealed","standard",32,0,5,30,20,0,0
"S20041201","sealed","standard",32,0,8,480,280,0,0
"S20041201","sealed","standard",32,1,1,255,200,1,55
"S20041201","sealed","standard",32,1,3,225,190,0,0
"S20041201","sealed","standard",32,1,7,315,100,0,0
"S20041201","sealed","standard",32,2,0,540,440,1,100
"S20041201","sealed","standard",32,2,4,210,190,0,0
"S20041201","sealed","standard",32,2,6,210,150,0,0
"S20041201","sealed","standard",32,3,12,165,60,0,0
"S20041201","sealed","standard",32,3,15,240,210,0,0
"S20041201","sealed","standard",32,3,17,450,400,1,50
"S20041201","sealed","standard",32,4,10,120,100,0,0
"S20041201","sealed","standard",32,4,13,30,20,0,0
"S20041201","sealed","standard",32,4,14,495,440,1,55
"S20041201","sealed","standard",32,5,9,45,40,0,0
"S20041201","sealed","standard",32,5,11,555,400,1,155
"S20041201","sealed","standard",32,5,16,360,310,0,0
"S20041201","sealed","standard",33,0,2,450,400,1,50
"S20041201","sealed","standard",33,0,5,15,10,0,0
"S20041201","sealed","standard",33,0,7,330,230,0,0
"S20041201","sealed","standard",33,1,1,120,100,0,0
"S20041201","sealed","standard",33,1,3,45,10,0,0
"S20041201","sealed","standard",33,1,4,495,430,1,65
"S20041201","sealed","standard",33,2,0,135,120,0,0
"S20041201","sealed","standard",33,2,6,180,180,0,0
"S20041201","sealed","standard",33,2,8,375,300,1,75
"S20041201","sealed","standard",33,3,9,540,420,0,0
"S20041201","sealed","standard",33,3,10,240,200,0,0
"S20041201","sealed","standard",33,3,15,495,450,1,45
"S20041201","sealed","standard",33,4,11,435,380,0,0
"S20041201","sealed","standard",33,4,12,525,430,1,95
"S20041201","sealed","standard",33,4,13,15,10,0,0
"S20041201","sealed","standard",33,5,14,210,200,0,0
"S20041201","sealed","standard",33,5,16,360,310,1,50
"S20041201","sealed","standard",33,5,17,75,70,0,0
"S20041201","sealed","standard",34,0,1,255,190,0,0
"S20041201","sealed","standard",34,0,4,15,10,0,0
"S20041201","sealed","standard",34,0,7,300,250,1,50
"S20041201","sealed","standard",34,1,0,195,170,1,25
"S20041201","sealed","standard",34,1,2,195,130,0,0
"S20041201","sealed","standard",34,1,6,150,100,0,0
"S20041201","sealed","standard",34,2,3,150,120,0,0
"S20041201","sealed","standard",34,2,5,195,150,0,0
"S20041201","sealed","standard",34,2,8,270,180,1,90
"S20041201","sealed","standard",34,3,10,15,10,0,0
"S20041201","sealed","standard",34,3,12,15,10,0,0
"S20041201","sealed","standard",34,3,16,465,390,1,75
"S20041201","sealed","standard",34,4,11,255,260,0,0
"S20041201","sealed","standard",34,4,15,435,400,0,0
"S20041201","sealed","standard",34,4,17,555,420,1,135
"S20041201","sealed","standard",34,5,9,585,450,1,135
"S20041201","sealed","standard",34,5,13,510,420,0,0
"S20041201","sealed","standard",34,5,14,420,380,0,0
"S20041201","sealed","standard",35,0,0,240,220,0,0
"S20041201","sealed","standard",35,0,1,600,510,1,90
"S20041201","sealed","standard",35,0,5,435,340,0,0
"S20041201","sealed","standard",35,1,4,90,50,0,0
"S20041201","sealed","standard",35,1,6,75,50,0,0
"S20041201","sealed","standard",35,1,7,75,70,1,5
"S20041201","sealed","standard",35,2,2,570,550,1,20
"S20041201","sealed","standard",35,2,3,300,270,0,0
"S20041201","sealed","standard",35,2,8,135,110,0,0
"S20041201","sealed","standard",35,3,11,60,90,0,0
"S20041201","sealed","standard",35,3,13,465,410,1,55
"S20041201","sealed","standard",35,3,16,45,10,0,0
"S20041201","sealed","standard",35,4,9,495,400,1,95
"S20041201","sealed","standard",35,4,15,135,100,0,0
"S20041201","sealed","standard",35,4,17,495,360,0,0
"S20041201","sealed","standard",35,5,10,420,370,1,50
"S20041201","sealed","standard",35,5,12,315,210,0,0
"S20041201","sealed","standard",35,5,14,30,20,0,0
"S20041201","sealed","standard",36,0,0,255,210,0,0
"S20041201","sealed","standard",36,0,2,210,170,0,0
"S20041201","sealed","standard",36,0,5,570,350,1,220
"S20041201","sealed","standard",36,1,3,30,20,0,0
"S20041201","sealed","standard",36,1,7,390,330,1,60
"S20041201","sealed","standard",36,1,8,330,270,0,0
"S20041201","sealed","standard",36,2,1,90,50,0,0
"S20041201","sealed","standard",36,2,4,90,70,0,0
"S20041201","sealed","standard",36,2,6,570,450,1,120
"S20041201","sealed","standard",36,3,9,480,400,1,80
"S20041201","sealed","standard",36,3,11,15,50,0,0
"S20041201","sealed","standard",36,3,12,405,300,0,0
"S20041201","sealed","standard",36,4,14,180,150,0,0
"S20041201","sealed","standard",36,4,15,255,210,0,0
"S20041201","sealed","standard",36,4,17,585,400,1,185
"S20041201","sealed","standard",36,5,10,555,500,1,55
"S20041201","sealed","standard",36,5,13,330,310,0,0
"S20041201","sealed","standard",36,5,16,210,200,0,0
"S20041201","sealed","standard",37,0,1,495,430,1,65
"S20041201","sealed","standard",37,0,3,255,220,0,0
"S20041201","sealed","standard",37,0,6,30,50,0,0
"S20041201","sealed","standard",37,1,2,480,450,1,30
"S20041201","sealed","standard",37,1,7,555,400,0,0
"S20041201","sealed","standard",37,1,8,165,150,0,0
"S20041201","sealed","standard",37,2,0,525,470,1,55
"S20041201","sealed","standard",37,2,4,120,100,0,0
"S20041201","sealed","standard",37,2,5,240,140,0,0
"S20041201","sealed","standard",37,3,11,15,40,0,0
"S20041201","sealed","standard",37,3,13,195,190,0,0
"S20041201","sealed","standard",37,3,14,600,490,1,110
"S20041201","sealed","standard",37,4,15,45,10,0,0
"S20041201","sealed","standard",37,4,16,210,200,0,0
"S20041201","sealed","standard",37,4,17,315,300,1,15
"S20041201","sealed","standard",37,5,9,135,130,0,0
"S20041201","sealed","standard",37,5,10,225,200,0,0
"S20041201","sealed","standard",37,5,12,600,500,1,100
"S20041201","sealed","standard",38,0,0,435,410,1,25
"S20041201","sealed","standard",38,0,7,120,100,0,0
"S20041201","sealed","standard",38,0,8,570,340,0,0
"S20041201","sealed","standard",38,1,1,345,270,0,0
"S20041201","sealed","standard",38,1,4,540,420,1,120
"S20041201","sealed","standard",38,1,5,555,300,0,0
"S20041201","sealed","standard",38,2,2,15,10,0,0
"S20041201","sealed","standard",38,2,3,315,280,0,0
"S20041201","sealed","standard",38,2,6,525,450,1,75
"S20041201","sealed","standard",38,3,11,600,460,1,140
"S20041201","sealed","standard",38,3,16,210,200,0,0
"S20041201","sealed","standard",38,3,17,210,210,0,0
"S20041201","sealed","standard",38,4,12,165,50,0,0
"S20041201","sealed","standard",38,4,13,165,160,1,5
"S20041201","sealed","standard",38,4,14,120,100,0,0
"S20041201","sealed","standard",38,5,9,285,270,0,0
"S20041201","sealed","standard",38,5,10,570,500,1,70
"S20041201","sealed","standard",38,5,15,255,210,0,0
"S20041201","sealed","standard",39,0,0,600,510,1,90
"S20041201","sealed","standard",39,0,1,540,430,0,0
"S20041201","sealed","standard",39,0,4,270,260,0,0
"S20041201","sealed","standard",39,1,2,90,70,0,0
"S20041201","sealed","standard",39,1,3,375,340,1,35
"S20041201","sealed","standard",39,1,6,30,50,0,0
"S20041201","sealed","standard",39,2,5,510,300,0,0
"S20041201","sealed","standard",39,2,7,135,110,0,0
"S20041201","sealed","standard",39,2,8,525,330,1,195
"S20041201","sealed","standard",39,3,10,135,100,0,0
"S20041201","sealed","standard",39,3,11,585,440,1,145
"S20041201","sealed","standard",39,3,16,300,270,0,0
"S20041201","sealed","standard",39,4,9,315,300,0,0
"S20041201","sealed","standard",39,4,12,510,400,1,110
"S20041201","sealed","standard",39,4,14,105,100,0,0
"S20041201","sealed","standard",39,5,13,180,170,0,0
"S20041201","sealed","standard",39,5,15,555,500,1,55
"S20041201","sealed","standard",39,5,17,510,400,0,0
"S20041201","sealed","standard",40,0,3,510,450,1,60
"S20041201","sealed","standard",40,0,6,285,200,0,0
"S20041201","sealed","standard",40,0,8,285,230,0,0
"S20041201","sealed","standard",40,1,4,60,50,0,0
"S20041201","sealed","standard",40,1,5,15,10,0,0
"S20041201","sealed","standard",40,1,7,180,150,1,30
"S20041201","sealed","standard",40,2,0,210,200,0,0
"S20041201","sealed","standard",40,2,1,540,490,0,0
"S20041201","sealed","standard",40,2,2,540,510,1,30
"S20041201","sealed","standard",40,3,14,300,270,0,0
"S20041201","sealed","standard",40,3,15,540,500,1,40
"S20041201","sealed","standard",40,3,16,30,30,0,0
"S20041201","sealed","standard",40,4,10,345,300,0,0
"S20041201","sealed","standard",40,4,11,420,380,1,40
"S20041201","sealed","standard",40,4,17,150,150,0,0
"S20041201","sealed","standard",40,5,9,240,230,0,0
"S20041201","sealed","standard",40,5,12,90,10,0,0
"S20041201","sealed","standard",40,5,13,450,410,1,40
"S20041201","sealed","standard",41,0,0,165,160,1,5
"S20041201","sealed","standard",41,0,2,60,30,0,0
"S20041201","sealed","standard",41,0,7,135,100,0,0
"S20041201","sealed","standard",41,1,4,570,440,1,130
"S20041201","sealed","standard",41,1,6,480,350,0,0
"S20041201","sealed","standard",41,1,8,270,230,0,0
"S20041201","sealed","standard",41,2,1,30,20,0,0
"S20041201","sealed","standard",41,2,3,15,10,0,0
"S20041201","sealed","standard",41,2,5,405,350,1,55
"S20041201","sealed","standard",41,3,10,90,50,0,0
"S20041201","sealed","standard",41,3,11,495,350,1,145
"S20041201","sealed","standard",41,3,14,165,150,0,0
"S20041201","sealed","standard",41,4,13,480,420,1,60
"S20041201","sealed","standard",41,4,15,210,150,0,0
"S20041201","sealed","standard",41,4,17,420,350,0,0
"S20041201","sealed","standard",41,5,9,75,70,0,0
"S20041201","sealed","standard",41,5,12,180,80,0,0
"S20041201","sealed","standard",41,5,16,120,100,1,20
"S20041201","sealed","standard",42,0,3,345,300,0,0
"S20041201","sealed","standard",42,0,5,525,400,1,125
"S20041201","sealed","standard",42,0,7,30,30,0,0
"S20041201","sealed","standard",42,1,1,405,370,0,0
"S20041201","sealed","standard",42,1,6,240,200,0,0
"S20041201","sealed","standard",42,1,8,525,390,1,135
"S20041201","sealed","standard",42,2,0,240,220,0,0
"S20041201","sealed","standard",42,2,2,165,140,0,0
"S20041201","sealed","standard",42,2,4,570,480,1,90
"S20041201","sealed","standard",42,3,9,525,420,1,105
"S20041201","sealed","standard",42,3,13,15,10,0,0
"S20041201","sealed","standard",42,3,17,60,60,0,0
"S20041201","sealed","standard",42,4,12,585,480,1,105
"S20041201","sealed","standard",42,4,14,480,420,0,0
"S20041201","sealed","standard",42,4,16,450,350,0,0
"S20041201","sealed","standard",42,5,10,450,390,1,60
"S20041201","sealed","standard",42,5,11,30,60,0,0
"S20041201","sealed","standard",42,5,15,60,30,0,0
"S20041201","sealed","standard",43,0,4,570,430,1,140
"S20041201","sealed","standard",43,0,6,390,300,0,0
"S20041201","sealed","standard",43,0,8,210,170,0,0
"S20041201","sealed","standard",43,1,2,390,360,1,30
"S20041201","sealed","standard",43,1,3,255,220,0,0
"S20041201","sealed","standard",43,1,5,390,330,0,0
"S20041201","sealed","standard",43,2,0,375,330,0,0
"S20041201","sealed","standard",43,2,1,495,460,1,35
"S20041201","sealed","standard",43,2,7,480,360,0,0
"S20041201","sealed","standard",43,3,12,150,50,0,0
"S20041201","sealed","standard",43,3,14,300,260,1,40
"S20041201","sealed","standard",43,3,17,105,100,0,0
"S20041201","sealed","standard",43,4,9,135,130,0,0
"S20041201","sealed","standard",43,4,10,375,330,1,45
"S20041201","sealed","standard",43,4,11,75,130,0,0
"S20041201","sealed","standard",43,5,13,390,360,1,30
"S20041201","sealed","standard",43,5,15,390,350,0,0
"S20041201","sealed","standard",43,5,16,105,70,0,0
"S20041201","sealed","standard",44,0,3,195,160,0,0
"S20041201","sealed","standard",44,0,6,495,400,1,95
"S20041201","sealed","standard",44,0,7,450,350,0,0
"S20041201","sealed","standard",44,1,1,375,340,0,0
"S20041201","sealed","standard",44,1,4,390,370,0,0
"S20041201","sealed","standard",44,1,8,525,400,1,125
"S20041201","sealed","standard",44,2,0,300,280,0,0
"S20041201","sealed","standard",44,2,2,390,350,1,40
"S20041201","sealed","standard",44,2,5,60,40,0,0
"S20041201","sealed","standard",44,3,10,300,250,0,0
"S20041201","sealed","standard",44,3,11,405,340,1,65
"S20041201","sealed","standard",44,3,16,315,270,0,0
"S20041201","sealed","standard",44,4,14,555,470,0,0
"S20041201","sealed","standard",44,4,15,600,550,1,50
"S20041201","sealed","standard",44,4,17,225,220,0,0
"S20041201","sealed","standard",44,5,9,315,300,0,0
"S20041201","sealed","standard",44,5,12,330,230,0,0
"S20041201","sealed","standard",44,5,13,360,330,1,30
"S20041201","sealed","standard",45,0,3,315,280,0,0
"S20041201","sealed","standard",45,0,6,375,300,1,75
"S20041201","sealed","standard",45,0,8,15,10,0,0
"S20041201","sealed","standard",45,1,0,360,340,0,0
"S20041201","sealed","standard",45,1,4,540,470,1,70
"S20041201","sealed","standard",45,1,7,495,390,0,0
"S20041201","sealed","standard",45,2,1,225,210,1,15
"S20041201","sealed","standard",45,2,2,30,10,0,0
"S20041201","sealed","standard",45,2,5,210,150,0,0
"S20041201","sealed","standard",45,3,12,255,150,0,0
"S20041201","sealed","standard",45,3,13,480,420,1,60
"S20041201","sealed","standard",45,3,15,210,150,0,0
"S20041201","sealed","standard",45,4,9,495,420,1,75
"S20041201","sealed","standard",45,4,11,90,140,0,0
"S20041201","sealed","standard",45,4,17,375,340,0,0
"S20041201","sealed","standard",45,5,10,180,150,1,30
"S20041201","sealed","standard",45,5,14,105,90,0,0
"S20041201","sealed","standard",45,5,16,45,10,0,0
"S20041201","sealed","standard",46,0,4,270,260,1,10
"S20041201","sealed","standard",46,0,6,45,50,0,0
"S20041201","sealed","standard",46,0,8,390,170,0,0
"S20041201","sealed","standard",46,1,0,495,440,1,55
"S20041201","sealed","standard",46,1,1,465,420,0,0
"S20041201","sealed","standard",46,1,7,570,420,0,0
"S20041201","sealed","standard",46,2,2,240,210,0,0
"S20041201","sealed","standard",46,2,3,225,200,0,0
"S20041201","sealed","standard",46,2,5,495,400,1,95
"S20041201","sealed","standard",46,3,10,510,450,1,60
"S20041201","sealed","standard",46,3,11,285,290,0,0
"S20041201","sealed","standard",46,3,16,30,10,0,0
"S20041201","sealed","standard",46,4,14,270,250,0,0
"S20041201","sealed","standard",46,4,15,135,100,0,0
"S20041201","sealed","standard",46,4,17,585,390,1,195
"S20041201","sealed","standard",46,5,9,15,10,0,0
"S20041201","sealed","standard",46,5,12,480,380,1,100
"S20041201","sealed","standard",46,5,13,15,10,0,0
"S20041201","sealed","standard",47,0,0,375,350,1,25
"S20041201","sealed","standard",47,0,4,180,170,0,0
"S20041201","sealed","standard",47,0,6,120,100,0,0
"S20041201","sealed","standard",47,1,3,90,50,0,0
"S20041201","sealed","standard",47,1,5,165,60,0,0
"S20041201","sealed","standard",47,1,7,135,100,1,35
"S20041201","sealed","standard",47,2,1,495,460,1,35
"S20041201","sealed","standard",47,2,2,30,10,0,0
"S20041201","sealed","standard",47,2,8,435,300,0,0
"S20041201","sealed","standard",47,3,10,525,460,1,65
"S20041201","sealed","standard",47,3,11,30,150,0,0
"S20041201","sealed","standard",47,3,12,600,300,0,0
"S20041201","sealed","standard",47,4,13,150,140,0,0
"S20041201","sealed","standard",47,4,16,510,370,0,0
"S20041201","sealed","standard",47,4,17,585,430,1,155
"S20041201","sealed","standard",47,5,9,90,80,0,0
"S20041201","sealed","standard",47,5,14,45,40,0,0
"S20041201","sealed","standard",47,5,15,495,450,1,45
"S20041201","sealed","standard",48,0,0,45,40,0,0
"S20041201","sealed","standard",48,0,3,480,450,1,30
"S20041201","sealed","standard",48,0,7,240,180,0,0
"S20041201","sealed","standard",48,1,4,270,250,1,20
"S20041201","sealed","standard",48,1,5,15,10,0,0
"S20041201","sealed","standard",48,1,8,15,10,0,0
"S20041201","sealed","standard",48,2,1,30,20,0,0
"S20041201","sealed","standard",48,2,2,45,20,0,0
"S20041201","sealed","standard",48,2,6,240,200,1,40
"S20041201","sealed","standard",48,3,12,315,220,0,0
"S20041201","sealed","standard",48,3,14,420,400,1,20
"S20041201","sealed","standard",48,3,16,15,10,0,0
"S20041201","sealed","standard",48,4,9,15,10,0,0
"S20041201","sealed","standard",48,4,10,30,10,0,0
"S20041201","sealed","standard",48,4,11,420,380,1,40
"S20041201","sealed","standard",48,5,13,420,380,1,40
"S20041201","sealed","standard",48,5,15,315,300,0,0
"S20041201","sealed","standard",48,5,17,375,350,0,0
"S20041201","sealed","standard",49,0,0,180,160,0,0
"S20041201","sealed","standard",49,0,1,405,370,1,35
"S20041201","sealed","standard",49,0,8,30,10,0,0
"S20041201","sealed","standard",49,1,3,135,100,0,0
"S20041201","sealed","standard",49,1,4,210,200,0,0
"S20041201","sealed","standard",49,1,6,315,250,1,65
"S20041201","sealed","standard",49,2,2,435,400,1,35
"S20041201","sealed","standard",49,2,5,315,250,0,0
"S20041201","sealed","standard",49,2,7,435,380,0,0
"S20041201","sealed","standard",49,3,10,285,230,1,55
"S20041201","sealed","standard",49,3,12,45,50,0,0
"S20041201","sealed","standard",49,3,16,105,100,0,0
"S20041201","sealed","standard",49,4,11,195,200,0,0
"S20041201","sealed","standard",49,4,15,255,210,1,45
"S20041201","sealed","standard",49,4,17,15,10,0,0
"S20041201","sealed","standard",49,5,9,165,160,0,0
"S20041201","sealed","standard",49,5,13,405,380,1,25
"S20041201","sealed","standard",49,5,14,210,200,0,0
"S20041201","sealed","standard",50,0,0,360,330,1,30
"S20041201","sealed","standard",50,0,1,195,170,0,0
"S20041201","sealed","standard",50,0,6,15,10,0,0
"S20041201","sealed","standard",50,1,2,15,10,0,0
"S20041201","sealed","standard",50,1,3,90,70,0,0
"S20041201","sealed","standard",50,1,8,180,150,1,30
"S20041201","sealed","standard",50,2,4,105,100,0,0
"S20041201","sealed","standard",50,2,5,285,150,0,0
"S20041201","sealed","standard",50,2,7,345,220,1,125
"S20041201","sealed","standard",50,3,9,420,380,0,0
"S20041201","sealed","standard",50,3,10,360,310,0,0
"S20041201","sealed","standard",50,3,13,465,410,1,55
"S20041201","sealed","standard",50,4,12,120,20,0,0
"S20041201","sealed","standard",50,4,14,75,70,0,0
"S20041201","sealed","standard",50,4,16,360,320,1,40
"S20041201","sealed","standard",50,5,11,240,250,1,-10
"S20041201","sealed","standard",50,5,15,180,150,0,0
"S20041201","sealed","standard",50,5,17,90,90,0,0
"S20041201","sealed","standard",51,0,2,465,440,1,25
"S20041201","sealed","standard",51,0,7,270,110,0,0
"S20041201","sealed","standard",51,0,8,360,300,0,0
"S20041201","sealed","standard",51,1,1,345,330,0,0
"S20041201","sealed","standard",51,1,3,510,450,1,60
"S20041201","sealed","standard",51,1,5,90,70,0,0
"S20041201","sealed","standard",51,2,0,405,360,1,45
"S20041201","sealed","standard",51,2,4,225,210,0,0
"S20041201","sealed","standard",51,2,6,315,250,0,0
"S20041201","sealed","standard",51,3,9,480,400,0,0
"S20041201","sealed","standard",51,3,12,165,50,0,0
"S20041201","sealed","standard",51,3,14,600,490,1,110
"S20041201","sealed","standard",51,4,11,165,150,0,0
"S20041201","sealed","standard",51,4,13,180,170,1,10
"S20041201","sealed","standard",51,4,16,120,100,0,0
"S20041201","sealed","standard",51,5,10,90,50,0,0
"S20041201","sealed","standard",51,5,15,255,200,0,0
"S20041201","sealed","standard",51,5,17,330,300,1,30
"S20041201","sealed","standard",52,0,1,540,490,1,50
"S20041201","sealed","standard",52,0,5,375,300,0,0
"S20041201","sealed","standard",52,0,6,450,350,0,0
"S20041201","sealed","standard",52,1,0,435,390,1,45
"S20041201","sealed","standard",52,1,2,195,170,0,0
"S20041201","sealed","standard",52,1,8,135,110,0,0
"S20041201","sealed","standard",52,2,3,585,500,1,85
"S20041201","sealed","standard",52,2,4,30,20,0,0
"S20041201","sealed","standard",52,2,7,435,360,0,0
"S20041201","sealed","standard",52,3,9,435,400,1,35
"S20041201","sealed","standard",52,3,11,255,230,0,0
"S20041201","sealed","standard",52,3,12,255,150,0,0
"S20041201","sealed","standard",52,4,10,570,500,1,70
"S20041201","sealed","standard",52,4,13,555,430,0,0
"S20041201","sealed","standard",52,4,15,195,150,0,0
"S20041201","sealed","standard",52,5,14,540,470,1,70
"S20041201","sealed","standard",52,5,16,75,60,0,0
"S20041201","sealed","standard",52,5,17,360,300,0,0
"S20041201","sealed","standard",53,0,2,315,280,1,35
"S20041201","sealed","standard",53,0,3,90,70,0,0
"S20041201","sealed","standard",53,0,6,270,230,0,0
"S20041201","sealed","standard",53,1,0,555,460,1,95
"S20041201","sealed","standard",53,1,5,225,150,0,0
"S20041201","sealed","standard",53,1,8,570,310,0,0
"S20041201","sealed","standard",53,2,1,450,420,1,30
"S20041201","sealed","standard",53,2,4,435,390,0,0
"S20041201","sealed","standard",53,2,7,450,350,0,0
"S20041201","sealed","standard",53,3,10,75,50,0,0
"S20041201","sealed","standard",53,3,16,90,80,0,0
"S20041201","sealed","standard",53,3,17,450,380,1,70
"S20041201","sealed","standard",53,4,9,30,20,0,0
"S20041201","sealed","standard",53,4,13,420,380,1,40
"S20041201","sealed","standard",53,4,14,120,110,0,0
"S20041201","sealed","standard",53,5,11,525,400,1,125
"S20041201","sealed","standard",53,5,12,180,80,0,0
"S20041201","sealed","standard",53,5,15,30,20,0,0
"S20041201","sealed","standard",54,0,1,285,200,0,0
"S20041201","sealed","standard",54,0,4,450,400,1,50
"S20041201","sealed","standard",54,0,8,600,330,0,0
"S20041201","sealed","standard",54,1,0,345,310,1,35
"S20041201","sealed","standard",54,1,2,330,280,0,0
"S20041201","sealed","standard",54,1,6,90,50,0,0
"S20041201","sealed","standard",54,2,3,585,500,1,85
"S20041201","sealed","standard",54,2,5,345,300,0,0
"S20041201","sealed","standard",54,2,7,330,110,0,0
"S20041201","sealed","standard",54,3,11,270,240,0,0
"S20041201","sealed","standard",54,3,13,120,110,0,0
"S20041201","sealed","standard",54,3,14,375,360,1,15
"S20041201","sealed","standard",54,4,10,150,100,0,0
"S20041201","sealed","standard",54,4,12,285,180,0,0
"S20041201","sealed","standard",54,4,17,315,300,1,15
"S20041201","sealed","standard",54,5,9,270,250,1,20
"S20041201","sealed","standard",54,5,15,90,50,0,0
"S20041201","sealed","standard",54,5,16,105,80,0,0
"S20041201","sealed","standard",55,0,1,105,100,0,0
"S20041201","sealed","standard",55,0,5,435,300,0,0
"S20041201","sealed","standard",55,0,7,510,410,1,100
"S20041201","sealed","standard",55,1,2,510,480,1,30
"S20041201","sealed","standard",55,1,4,225,200,0,0
"S20041201","sealed","standard",55,1,6,255,200,0,0
"S20041201","sealed","standard",55,2,0,15,10,0,0
"S20041201","sealed","standard",55,2,3,165,140,0,0
"S20041201","sealed","standard",55,2,8,195,170,1,25
"S20041201","sealed","standard",55,3,10,105,50,0,0
"S20041201","sealed","standard",55,3,11,195,170,0,0
"S20041201","sealed","standard",55,3,15,555,500,1,55
"S20041201","sealed","standard",55,4,9,345,300,0,0
"S20041201","sealed","standard",55,4,14,555,470,1,85
"S20041201","sealed","standard",55,4,16,450,350,0,0
"S20041201","sealed","standard",55,5,12,285,180,1,105
"S20041201","sealed","standard",55,5,13,90,80,0,0
"S20041201","sealed","standard",55,5,17,105,100,0,0
"S20041201","sealed","standard",56,0,3,375,340,0,0
"S20041201","sealed","standard",56,0,6,195,150,0,0
"S20041201","sealed","standard",56,0,7,405,360,1,45
"S20041201","sealed","standard",56,1,0,285,260,0,0
"S20041201","sealed","standard",56,1,1,330,280,0,0
"S20041201","sealed","standard",56,1,8,420,340,1,80
"S20041201","sealed","standard",56,2,2,600,570,1,30
"S20041201","sealed","standard",56,2,4,375,340,0,0
"S20041201","sealed","standard",56,2,5,195,150,0,0
"S20041201","sealed","standard",56,3,11,495,410,1,85
"S20041201","sealed","standard",56,3,13,105,100,0,0
"S20041201","sealed","standard",56,3,17,375,290,0,0
"S20041201","sealed","standard",56,4,12,45,20,0,0
"S20041201","sealed","standard",56,4,14,30,20,0,0
"S20041201","sealed","standard",56,4,16,360,310,1,50
"S20041201","sealed","standard",56,5,9,105,100,0,0
"S20041201","sealed","standard",56,5,10,150,100,0,0
"S20041201","sealed","standard",56,5,15,240,200,1,40
"S20041201","sealed","standard",57,0,1,300,270,0,0
"S20041201","sealed","standard",57,0,6,510,400,0,0
"S20041201","sealed","standard",57,0,7,555,430,1,125
"S20041201","sealed","standard",57,1,0,420,360,1,60
"S20041201","sealed","standard",57,1,2,225,200,0,0
"S20041201","sealed","standard",57,1,5,480,300,0,0
"S20041201","sealed","standard",57,2,3,150,130,0,0
"S20041201","sealed","standard",57,2,4,75,50,0,0
"S20041201","sealed","standard",57,2,8,270,250,1,20
"S20041201","sealed","standard",57,3,11,45,10,0,0
"S20041201","sealed","standard",57,3,14,30,20,0,0
"S20041201","sealed","standard",57,3,17,480,390,1,90
"S20041201","sealed","standard",57,4,9,405,350,0,0
"S20041201","sealed","standard",57,4,10,510,450,1,60
"S20041201","sealed","standard",57,4,15,450,400,0,0
"S20041201","sealed","standard",57,5,12,510,410,1,100
"S20041201","sealed","standard",57,5,13,150,140,0,0
"S20041201","sealed","standard",57,5,16,480,390,0,0
"S20041201","sealed","standard",58,0,0,495,410,0,0
"S20041201","sealed","standard",58,0,2,90,70,0,0
"S20041201","sealed","standard",58,0,6,600,500,1,100
"S20041201","sealed","standard",58,1,3,90,80,0,0
"S20041201","sealed","standard",58,1,4,495,400,1,95
"S20041201","sealed","standard",58,1,7,300,270,0,0
"S20041201","sealed","standard",58,2,1,465,430,1,35
"S20041201","sealed","standard",58,2,5,30,20,0,0
"S20041201","sealed","standard",58,2,8,240,140,0,0
"S20041201","sealed","standard",58,3,12,450,350,1,100
"S20041201","sealed","standard",58,3,13,90,80,0,0
"S20041201","sealed","standard",58,3,14,315,300,0,0
"S20041201","sealed","standard",58,4,9,420,380,1,40
"S20041201","sealed","standard",58,4,10,15,10,0,0
"S20041201","sealed","standard",58,4,11,555,350,0,0
"S20041201","sealed","standard",58,5,15,420,400,1,20
"S20041201","sealed","standard",58,5,16,60,10,0,0
"S20041201","sealed","standard",58,5,17,465,360,0,0
"S20041201","sealed","standard",59,0,0,240,220,0,0
"S20041201","sealed","standard",59,0,2,600,570,1,30
"S20041201","sealed","standard",59,0,7,525,250,0,0
"S20041201","sealed","standard",59,1,4,330,310,1,20
"S20041201","sealed","standard",59,1,6,105,70,0,0
"S20041201","sealed","standard",59,1,8,135,130,0,0
"S20041201","sealed","standard",59,2,1,30,20,0,0
"S20041201","sealed","standard",59,2,3,75,50,0,0
"S20041201","sealed","standard",59,2,5,240,200,1,40
"S20041201","sealed","standard",59,3,11,495,370,1,125
"S20041201","sealed","standard",59,3,12,375,270,0,0
"S20041201","sealed","standard",59,3,17,30,30,0,0
"S20041201","sealed","standard",59,4,13,210,190,0,0
"S20041201","sealed","standard",59,4,15,315,250,0,0
"S20041201","sealed","standard",59,4,16,315,270,1,45
"S20041201","sealed","standard",59,5,9,210,200,0,0
"S20041201","sealed","standard",59,5,10,45,30,0,0
"S20041201","sealed","standard",59,5,14,330,310,1,20
"S20041201","sealed","standard",60,0,0,540,460,1,80
"S20041201","sealed","standard",60,0,1,165,150,0,0
"S20041201","sealed","standard",60,0,3,345,300,0,0
"S20041201","sealed","standard",60,1,2,210,180,0,0
"S20041201","sealed","standard",60,1,5,150,110,0,0
"S20041201","sealed","standard",60,1,8,270,250,1,20
"S20041201","sealed","standard",60,2,4,570,410,1,160
"S20041201","sealed","standard",60,2,6,120,100,0,0
"S20041201","sealed","standard",60,2,7,240,190,0,0
"S20041201","sealed","standard",60,3,9,540,430,0,0
"S20041201","sealed","standard",60,3,10,510,460,1,50
"S20041201","sealed","standard",60,3,13,150,140,0,0
"S20041201","sealed","standard",60,4,12,525,420,1,105
"S20041201","sealed","standard",60,4,14,165,150,0,0
"S20041201","sealed","standard",60,4,17,360,300,0,0
"S20041201","sealed","standard",60,5,11,525,350,1,175
"S20041201","sealed","standard",60,5,15,255,210,0,0
"S20041201","sealed","standard",60,5,16,195,150,0,0
"S20041202","dutch","standard",1,0,0,315,-1,0,0
"S20041202","dutch","standard",1,0,5,570,470,1,100
"S20041202","dutch","standard",1,0,8,390,-1,0,0
"S20041202","dutch","standard",1,1,2,240,-1,0,0
"S20041202","dutch","standard",1,1,6,510,-1,0,0
"S20041202","dutch","standard",1,1,7,555,500,1,55
"S20041202","dutch","standard",1,2,1,30,-1,0,0
"S20041202","dutch","standard",1,2,3,345,-1,0,0
"S20041202","dutch","standard",1,2,4,285,150,1,135
"S20041202","dutch","standard",1,3,12,75,-1,0,0
"S20041202","dutch","standard",1,3,13,420,580,1,-160
"S20041202","dutch","standard",1,3,17,585,-1,0,0
"S20041202","dutch","standard",1,4,10,450,380,1,70
"S20041202","dutch","standard",1,4,11,75,-1,0,0
"S20041202","dutch","standard",1,4,16,390,-1,0,0
"S20041202","dutch","standard",1,5,9,600,-1,0,0
"S20041202","dutch","standard",1,5,14,570,500,1,70
"S20041202","dutch","standard",1,5,15,15,-1,0,0
"S20041202","dutch","standard",2,0,0,525,410,1,115
"S20041202","dutch","standard",2,0,2,15,-1,0,0
"S20041202","dutch","standard",2,0,5,330,-1,0,0
"S20041202","dutch","standard",2,1,3,165,120,1,45
"S20041202","dutch","standard",2,1,4,210,-1,0,0
"S20041202","dutch","standard",2,1,7,90,-1,0,0
"S20041202","dutch","standard",2,2,1,540,-1,0,0
"S20041202","dutch","standard",2,2,6,435,420,1,15
"S20041202","dutch","standard",2,2,8,75,-1,0,0
"S20041202","dutch","standard",2,3,9,45,-1,0,0
"S20041202","dutch","standard",2,3,11,480,410,1,70
"S20041202","dutch","standard",2,3,17,135,-1,0,0
"S20041202","dutch","standard",2,4,10,240,-1,0,0
"S20041202","dutch","standard",2,4,13,300,-1,0,0
"S20041202","dutch","standard",2,4,15,585,480,1,105
"S20041202","dutch","standard",2,5,12,570,470,1,100
"S20041202","dutch","standard",2,5,14,45,-1,0,0
"S20041202","dutch","standard",2,5,16,150,-1,0,0
"S20041202","dutch","standard",3,0,1,60,-1,0,0
"S20041202","dutch","standard",3,0,5,345,290,1,55
"S20041202","dutch","standard",3,0,7,60,-1,0,0
"S20041202","dutch","standard",3,1,3,45,-1,0,0
"S20041202","dutch","standard",3,1,4,375,-1,0,0
"S20041202","dutch","standard",3,1,8,255,230,1,25
"S20041202","dutch","standard",3,2,0,195,-1,0,0
"S20041202","dutch","standard",3,2,2,120,-1,0,0
"S20041202","dutch","standard",3,2,6,345,330,1,15
"S20041202","dutch","standard",3,3,12,330,-1,0,0
"S20041202","dutch","standard",3,3,15,405,300,0,0
"S20041202","dutch","standard",3,3,16,345,300,1,45
"S20041202","dutch","standard",3,4,9,255,230,1,25
"S20041202","dutch","standard",3,4,10,270,-1,0,0
"S20041202","dutch","standard",3,4,13,285,-1,0,0
"S20041202","dutch","standard",3,5,11,405,-1,0,0
"S20041202","dutch","standard",3,5,14,600,450,1,150
"S20041202","dutch","standard",3,5,17,285,-1,0,0
"S20041202","dutch","standard",4,0,0,360,-1,0,0
"S20041202","dutch","standard",4,0,1,360,-1,0,0
"S20041202","dutch","standard",4,0,3,420,590,1,-170
"S20041202","dutch","standard",4,1,2,75,-1,0,0
"S20041202","dutch","standard",4,1,4,495,340,1,155
"S20041202","dutch","standard",4,1,6,105,-1,0,0
"S20041202","dutch","standard",4,2,5,600,400,1,200
"S20041202","dutch","standard",4,2,7,75,-1,0,0
"S20041202","dutch","standard",4,2,8,330,-1,0,0
"S20041202","dutch","standard",4,3,9,255,-1,0,0
"S20041202","dutch","standard",4,3,14,30,-1,0,0
"S20041202","dutch","standard",4,3,16,285,270,1,15
"S20041202","dutch","standard",4,4,10,360,-1,0,0
"S20041202","dutch","standard",4,4,15,465,-1,0,0
"S20041202","dutch","standard",4,4,17,105,550,1,-445
"S20041202","dutch","standard",4,5,11,435,-1,0,0
"S20041202","dutch","standard",4,5,12,525,400,1,125
"S20041202","dutch","standard",4,5,13,585,400,0,0
"S20041202","dutch","standard",5,0,0,300,-1,0,0
"S20041202","dutch","standard",5,0,5,495,-1,0,0
"S20041202","dutch","standard",5,0,8,600,480,1,120
"S20041202","dutch","standard",5,1,2,330,-1,0,0
"S20041202","dutch","standard",5,1,4,495,-1,0,0
"S20041202","dutch","standard",5,1,7,525,460,1,65
"S20041202","dutch","standard",5,2,1,345,-1,0,0
"S20041202","dutch","standard",5,2,3,360,480,1,-120
"S20041202","dutch","standard",5,2,6,390,-1,0,0
"S20041202","dutch","standard",5,3,9,555,500,1,55
"S20041202","dutch","standard",5,3,13,180,-1,0,0
"S20041202","dutch","standard",5,3,17,375,-1,0,0
"S20041202","dutch","standard",5,4,14,225,-1,0,0
"S20041202","dutch","standard",5,4,15,375,-1,0,0
"S20041202","dutch","standard",5,4,16,585,510,1,75
"S20041202","dutch","standard",5,5,10,180,-1,0,0
"S20041202","dutch","standard",5,5,11,285,250,1,35
"S20041202","dutch","standard",5,5,12,375,-1,0,0
"S20041202","dutch","standard",6,0,2,345,-1,0,0
"S20041202","dutch","standard",6,0,5,30,-1,0,0
"S20041202","dutch","standard",6,0,8,510,310,1,200
"S20041202","dutch","standard",6,1,1,450,400,1,50
"S20041202","dutch","standard",6,1,4,435,-1,0,0
"S20041202","dutch","standard",6,1,6,345,-1,0,0
"S20041202","dutch","standard",6,2,0,135,-1,0,0
"S20041202","dutch","standard",6,2,3,105,-1,0,0
"S20041202","dutch","standard",6,2,7,195,150,1,45
"S20041202","dutch","standard",6,3,11,255,-1,0,0
"S20041202","dutch","standard",6,3,12,390,290,1,100
"S20041202","dutch","standard",6,3,14,180,-1,0,0
"S20041202","dutch","standard",6,4,13,165,-1,0,0
"S20041202","dutch","standard",6,4,15,570,470,1,100
"S20041202","dutch","standard",6,4,16,510,-1,0,0
"S20041202","dutch","standard",6,5,9,75,-1,0,0
"S20041202","dutch","standard",6,5,10,465,410,1,55
"S20041202","dutch","standard",6,5,17,315,-1,0,0
"S20041202","dutch","standard",7,0,0,210,-1,0,0
"S20041202","dutch","standard",7,0,1,255,-1,0,0
"S20041202","dutch","standard",7,0,4,555,400,1,155
"S20041202","dutch","standard",7,1,2,585,350,1,235
"S20041202","dutch","standard",7,1,3,435,-1,0,0
"S20041202","dutch","standard",7,1,6,75,-1,0,0
"S20041202","dutch","standard",7,2,5,180,120,1,60
"S20041202","dutch","standard",7,2,7,30,-1,0,0
"S20041202","dutch","standard",7,2,8,195,-1,0,0
"S20041202","dutch","standard",7,3,11,60,-1,0,0
"S20041202","dutch","standard",7,3,14,570,500,1,70
"S20041202","dutch","standard",7,3,17,450,-1,0,0
"S20041202","dutch","standard",7,4,9,150,-1,0,0
"S20041202","dutch","standard",7,4,12,105,-1,0,0
"S20041202","dutch","standard",7,4,16,570,500,1,70
"S20041202","dutch","standard",7,5,10,30,-1,0,0
"S20041202","dutch","standard",7,5,13,405,340,1,65
"S20041202","dutch","standard",7,5,15,150,-1,0,0
"S20041202","dutch","standard",8,0,3,180,-1,0,0
"S20041202","dutch","standard",8,0,4,210,-1,0,0
"S20041202","dutch","standard",8,0,7,450,330,1,120
"S20041202","dutch","standard",8,1,0,90,-1,0,0
"S20041202","dutch","standard",8,1,1,225,-1,0,0
"S20041202","dutch","standard",8,1,6,540,500,1,40
"S20041202","dutch","standard",8,2,2,570,330,0,0
"S20041202","dutch","standard",8,2,5,45,-1,0,0
"S20041202","dutch","standard",8,2,8,375,330,1,45
"S20041202","dutch","standard",8,3,13,405,-1,0,0
"S20041202","dutch","standard",8,3,16,525,460,1,65
"S20041202","dutch","standard",8,3,17,75,-1,0,0
"S20041202","dutch","standard",8,4,9,165,-1,0,0
"S20041202","dutch","standard",8,4,10,600,500,1,100
"S20041202","dutch","standard",8,4,11,75,-1,0,0
"S20041202","dutch","standard",8,5,12,405,-1,0,0
"S20041202","dutch","standard",8,5,14,255,-1,0,0
"S20041202","dutch","standard",8,5,15,435,330,1,105
"S20041202","dutch","standard",9,0,3,510,430,1,80
"S20041202","dutch","standard",9,0,5,15,-1,0,0
"S20041202","dutch","standard",9,0,7,525,-1,0,0
"S20041202","dutch","standard",9,1,1,135,-1,0,0
"S20041202","dutch","standard",9,1,4,225,-1,0,0
"S20041202","dutch","standard",9,1,6,540,440,1,100
"S20041202","dutch","standard",9,2,0,240,-1,0,0
"S20041202","dutch","standard",9,2,2,15,-1,0,0
"S20041202","dutch","standard",9,2,8,525,450,1,75
"S20041202","dutch","standard",9,3,9,270,-1,0,0
"S20041202","dutch","standard",9,3,10,90,-1,0,0
"S20041202","dutch","standard",9,3,16,375,340,1,35
"S20041202","dutch","standard",9,4,11,210,-1,0,0
"S20041202","dutch","standard",9,4,13,405,350,1,55
"S20041202","dutch","standard",9,4,15,240,-1,0,0
"S20041202","dutch","standard",9,5,12,360,-1,0,0
"S20041202","dutch","standard",9,5,14,345,270,1,75
"S20041202","dutch","standard",9,5,17,60,-1,0,0
"S20041202","dutch","standard",10,0,2,195,-1,0,0
"S20041202","dutch","standard",10,0,7,165,-1,0,0
"S20041202","dutch","standard",10,0,8,390,300,1,90
"S20041202","dutch","standard",10,1,1,375,340,1,35
"S20041202","dutch","standard",10,1,3,30,-1,0,0
"S20041202","dutch","standard",10,1,4,240,-1,0,0
"S20041202","dutch","standard",10,2,0,45,-1,0,0
"S20041202","dutch","standard",10,2,5,375,-1,0,0
"S20041202","dutch","standard",10,2,6,570,280,1,290
"S20041202","dutch","standard",10,3,10,60,-1,0,0
"S20041202","dutch","standard",10,3,11,180,-1,0,0
"S20041202","dutch","standard",10,3,17,435,350,1,85
"S20041202","dutch","standard",10,4,12,165,-1,0,0
"S20041202","dutch","standard",10,4,15,390,290,1,100
"S20041202","dutch","standard",10,4,16,75,-1,0,0
"S20041202","dutch","standard",10,5,9,135,-1,0,0
"S20041202","dutch","standard",10,5,13,165,-1,0,0
"S20041202","dutch","standard",10,5,14,300,250,1,50
"S20041202","dutch","standard",11,0,1,30,-1,0,0
"S20041202","dutch","standard",11,0,3,435,370,1,65
"S20041202","dutch","standard",11,0,4,315,-1,0,0
"S20041202","dutch","standard",11,1,2,495,380,1,115
"S20041202","dutch","standard",11,1,5,420,-1,0,0
"S20041202","dutch","standard",11,1,7,480,-1,0,0
"S20041202","dutch","standard",11,2,0,540,440,1,100
"S20041202","dutch","standard",11,2,6,480,-1,0,0
"S20041202","dutch","standard",11,2,8,360,-1,0,0
"S20041202","dutch","standard",11,3,9,270,-1,0,0
"S20041202","dutch","standard",11,3,12,480,400,1,80
"S20041202","dutch","standard",11,3,17,555,-1,0,0
"S20041202","dutch","standard",11,4,10,15,-1,0,0
"S20041202","dutch","standard",11,4,11,435,380,1,55
"S20041202","dutch","standard",11,4,15,420,-1,0,0
"S20041202","dutch","standard",11,5,13,450,370,1,80
"S20041202","dutch","standard",11,5,14,390,-1,0,0
"S20041202","dutch","standard",11,5,16,255,-1,0,0
"S20041202","dutch","standard",12,0,0,105,-1,0,0
"S20041202","dutch","standard",12,0,2,540,360,1,180
"S20041202","dutch","standard",12,0,4,465,-1,0,0
"S20041202","dutch","standard",12,1,5,435,-1,0,0
"S20041202","dutch","standard",12,1,6,345,-1,0,0
"S20041202","dutch","standard",12,1,7,585,420,1,165
"S20041202","dutch","standard",12,2,1,210,-1,0,0
"S20041202","dutch","standard",12,2,3,165,280,1,-115
"S20041202","dutch","standard",12,2,8,210,-1,0,0
"S20041202","dutch","standard",12,3,11,555,460,1,95
"S20041202","dutch","standard",12,3,13,150,-1,0,0
"S20041202","dutch","standard",12,3,14,90,-1,0,0
"S20041202","dutch","standard",12,4,12,75,-1,0,0
"S20041202","dutch","standard",12,4,16,375,320,1,55
"S20041202","dutch","standard",12,4,17,150,-1,0,0
"S20041202","dutch","standard",12,5,9,225,-1,0,0
"S20041202","dutch","standard",12,5,10,165,-1,0,0
"S20041202","dutch","standard",12,5,15,495,390,1,105
"S20041202","dutch","standard",13,0,0,555,400,1,155
"S20041202","dutch","standard",13,0,1,375,-1,0,0
"S20041202","dutch","standard",13,0,6,120,-1,0,0
"S20041202","dutch","standard",13,1,3,600,-1,0,0
"S20041202","dutch","standard",13,1,5,30,-1,0,0
"S20041202","dutch","standard",13,1,8,555,400,1,155
"S20041202","dutch","standard",13,2,2,465,-1,0,0
"S20041202","dutch","standard",13,2,4,510,430,1,80
"S20041202","dutch","standard",13,2,7,375,-1,0,0
"S20041202","dutch","standard",13,3,9,465,400,1,65
"S20041202","dutch","standard",13,3,10,15,-1,0,0
"S20041202","dutch","standard",13,3,15,60,-1,0,0
"S20041202","dutch","standard",13,4,14,345,-1,0,0
"S20041202","dutch","standard",13,4,16,480,400,1,80
"S20041202","dutch","standard",13,4,17,360,-1,0,0
"S20041202","dutch","standard",13,5,11,135,-1,0,0
"S20041202","dutch","standard",13,5,12,495,400,1,95
"S20041202","dutch","standard",13,5,13,195,-1,0,0
"S20041202","dutch","standard",14,0,3,450,350,1,100
"S20041202","dutch","standard",14,0,4,255,-1,0,0
"S20041202","dutch","standard",14,0,7,300,-1,0,0
"S20041202","dutch","standard",14,1,0,15,-1,0,0
"S20041202","dutch","standard",14,1,1,195,-1,0,0
"S20041202","dutch","standard",14,1,8,315,250,1,65
"S20041202","dutch","standard",14,2,2,180,140,1,40
"S20041202","dutch","standard",14,2,5,105,-1,0,0
"S20041202","dutch","standard",14,2,6,60,-1,0,0
"S20041202","dutch","standard",14,3,10,315,-1,0,0
"S20041202","dutch","standard",14,3,11,495,410,1,85
"S20041202","dutch","standard",14,3,17,345,-1,0,0
"S20041202","dutch","standard",14,4,14,240,220,1,20
"S20041202","dutch","standard",14,4,15,225,-1,0,0
"S20041202","dutch","standard",14,4,16,75,-1,0,0
"S20041202","dutch","standard",14,5,9,555,460,1,95
"S20041202","dutch","standard",14,5,12,360,-1,0,0
"S20041202","dutch","standard",14,5,13,555,-1,0,0
"S20041202","dutch","standard",15,0,0,600,-1,0,0
"S20041202","dutch","standard",15,0,4,465,-1,0,0
"S20041202","dutch","standard",15,0,6,510,490,1,20
"S20041202","dutch","standard",15,1,2,330,-1,0,0
"S20041202","dutch","standard",15,1,3,195,390,1,-195
"S20041202","dutch","standard",15,1,8,120,-1,0,0
"S20041202","dutch","standard",15,2,1,495,430,1,65
"S20041202","dutch","standard",15,2,5,195,-1,0,0
"S20041202","dutch","standard",15,2,7,255,-1,0,0
"S20041202","dutch","standard",15,3,11,255,-1,0,0
"S20041202","dutch","standard",15,3,15,600,500,1,100
"S20041202","dutch","standard",15,3,16,450,-1,0,0
"S20041202","dutch","standard",15,4,12,225,-1,0,0
"S20041202","dutch","standard",15,4,13,570,470,1,100
"S20041202","dutch","standard",15,4,17,285,-1,0,0
"S20041202","dutch","standard",15,5,9,375,-1,0,0
"S20041202","dutch","standard",15,5,10,165,-1,0,0
"S20041202","dutch","standard",15,5,14,585,490,1,95
"S20041202","dutch","standard",16,0,3,330,420,1,-90
"S20041202","dutch","standard",16,0,5,165,-1,0,0
"S20041202","dutch","standard",16,0,7,210,-1,0,0
"S20041202","dutch","standard",16,1,1,375,330,1,45
"S20041202","dutch","standard",16,1,6,165,-1,0,0
"S20041202","dutch","standard",16,1,8,210,-1,0,0
"S20041202","dutch","standard",16,2,0,600,480,1,120
"S20041202","dutch","standard",16,2,2,525,-1,0,0
"S20041202","dutch","standard",16,2,4,195,-1,0,0
"S20041202","dutch","standard",16,3,13,180,-1,0,0
"S20041202","dutch","standard",16,3,14,510,400,1,110
"S20041202","dutch","standard",16,3,16,420,-1,0,0
"S20041202","dutch","standard",16,4,9,240,-1,0,0
"S20041202","dutch","standard",16,4,10,525,480,1,45
"S20041202","dutch","standard",16,4,17,390,-1,0,0
"S20041202","dutch","standard",16,5,11,585,480,1,105
"S20041202","dutch","standard",16,5,12,570,-1,0,0
"S20041202","dutch","standard",16,5,15,330,-1,0,0
"S20041202","dutch","standard",17,0,3,150,-1,0,0
"S20041202","dutch","standard",17,0,5,330,280,1,50
"S20041202","dutch","standard",17,0,6,120,-1,0,0
"S20041202","dutch","standard",17,1,0,315,280,0,0
"S20041202","dutch","standard",17,1,1,315,280,1,35
"S20041202","dutch","standard",17,1,8,60,-1,0,0
"S20041202","dutch","standard",17,2,2,360,340,0,0
"S20041202","dutch","standard",17,2,4,315,-1,0,0
"S20041202","dutch","standard",17,2,7,405,340,1,65
"S20041202","dutch","standard",17,3,9,360,-1,0,0
"S20041202","dutch","standard",17,3,10,525,450,1,75
"S20041202","dutch","standard",17,3,13,60,-1,0,0
"S20041202","dutch","standard",17,4,14,555,390,1,165
"S20041202","dutch","standard",17,4,15,495,390,0,0
"S20041202","dutch","standard",17,4,17,60,-1,0,0
"S20041202","dutch","standard",17,5,11,585,480,1,105
"S20041202","dutch","standard",17,5,12,150,-1,0,0
"S20041202","dutch","standard",17,5,16,150,-1,0,0
"S20041202","dutch","standard",18,0,3,540,400,1,140
"S20041202","dutch","standard",18,0,5,60,-1,0,0
"S20041202","dutch","standard",18,0,8,195,-1,0,0
"S20041202","dutch","standard",18,1,0,345,310,1,35
"S20041202","dutch","standard",18,1,1,225,-1,0,0
"S20041202","dutch","standard",18,1,2,315,310,0,0
"S20041202","dutch","standard",18,2,4,75,-1,0,0
"S20041202","dutch","standard",18,2,6,405,370,1,35
"S20041202","dutch","standard",18,2,7,285,-1,0,0
"S20041202","dutch","standard",18,3,13,330,310,1,20
"S20041202","dutch","standard",18,3,14,225,-1,0,0
"S20041202","dutch","standard",18,3,17,75,-1,0,0
"S20041202","dutch","standard",18,4,9,240,-1,0,0
"S20041202","dutch","standard",18,4,11,585,470,1,115
"S20041202","dutch","standard",18,4,12,210,-1,0,0
"S20041202","dutch","standard",18,5,10,570,-1,0,0
"S20041202","dutch","standard",18,5,15,75,-1,0,0
"S20041202","dutch","standard",18,5,16,585,510,1,75
"S20041202","dutch","standard",19,0,0,270,-1,0,0
"S20041202","dutch","standard",19,0,7,255,-1,0,0
"S20041202","dutch","standard",19,0,8,420,370,1,50
"S20041202","dutch","standard",19,1,1,555,450,1,105
"S20041202","dutch","standard",19,1,4,570,450,0,0
"S20041202","dutch","standard",19,1,6,465,-1,0,0
"S20041202","dutch","standard",19,2,2,270,-1,0,0
"S20041202","dutch","standard",19,2,3,495,420,1,75
"S20041202","dutch","standard",19,2,5,555,-1,0,0
"S20041202","dutch","standard",19,3,13,510,400,1,110
"S20041202","dutch","standard",19,3,14,60,-1,0,0
"S20041202","dutch","standard",19,3,15,300,-1,0,0
"S20041202","dutch","standard",19,4,10,165,-1,0,0
"S20041202","dutch","standard",19,4,12,60,-1,0,0
"S20041202","dutch","standard",19,4,16,510,410,1,100
"S20041202","dutch","standard",19,5,9,270,230,1,40
"S20041202","dutch","standard",19,5,11,60,-1,0,0
"S20041202","dutch","standard",19,5,17,240,-1,0,0
"S20041202","dutch","standard",20,0,1,105,-1,0,0
"S20041202","dutch","standard",20,0,3,165,-1,0,0
"S20041202","dutch","standard",20,0,8,375,300,1,75
"S20041202","dutch","standard",20,1,4,165,-1,0,0
"S20041202","dutch","standard",20,1,6,420,390,1,30
"S20041202","dutch","standard",20,1,7,105,-1,0,0
"S20041202","dutch","standard",20,2,0,525,480,1,45
"S20041202","dutch","standard",20,2,2,120,-1,0,0
"S20041202","dutch","standard",20,2,5,150,-1,0,0
"S20041202","dutch","standard",20,3,9,285,-1,0,0
"S20041202","dutch","standard",20,3,13,75,-1,0,0
"S20041202","dutch","standard",20,3,16,555,480,1,75
"S20041202","dutch","standard",20,4,10,585,490,1,95
"S20041202","dutch","standard",20,4,11,600,-1,0,0
"S20041202","dutch","standard",20,4,14,75,-1,0,0
"S20041202","dutch","standard",20,5,12,165,-1,0,0
"S20041202","dutch","standard",20,5,15,180,-1,0,0
"S20041202","dutch","standard",20,5,17,300,290,1,10
"S20041202","dutch","standard",21,0,0,75,-1,0,0
"S20041202","dutch","standard",21,0,2,60,-1,0,0
"S20041202","dutch","standard",21,0,5,180,150,1,30
"S20041202","dutch","standard",21,1,4,330,-1,0,0
"S20041202","dutch","standard",21,1,7,300,-1,0,0
"S20041202","dutch","standard",21,1,8,405,300,1,105
"S20041202","dutch","standard",21,2,1,240,-1,0,0
"S20041202","dutch","standard",21,2,3,540,340,1,200
"S20041202","dutch","standard",21,2,6,135,-1,0,0
"S20041202","dutch","standard",21,3,9,480,450,1,30
"S20041202","dutch","standard",21,3,10,75,-1,0,0
"S20041202","dutch","standard",21,3,12,240,-1,0,0
"S20041202","dutch","standard",21,4,11,150,-1,0,0
"S20041202","dutch","standard",21,4,14,465,-1,0,0
"S20041202","dutch","standard",21,4,16,510,450,1,60
"S20041202","dutch","standard",21,5,13,435,400,1,35
"S20041202","dutch","standard",21,5,15,255,-1,0,0
"S20041202","dutch","standard",21,5,17,195,-1,0,0
"S20041202","dutch","standard",22,0,2,285,250,1,35
"S20041202","dutch","standard",22,0,5,105,-1,0,0
"S20041202","dutch","standard",22,0,6,90,-1,0,0
"S20041202","dutch","standard",22,1,1,210,-1,0,0
"S20041202","dutch","standard",22,1,7,390,330,1,60
"S20041202","dutch","standard",22,1,8,30,-1,0,0
"S20041202","dutch","standard",22,2,0,60,-1,0,0
"S20041202","dutch","standard",22,2,3,225,150,1,75
"S20041202","dutch","standard",22,2,4,30,-1,0,0
"S20041202","dutch","standard",22,3,11,360,-1,0,0
"S20041202","dutch","standard",22,3,14,75,-1,0,0
"S20041202","dutch","standard",22,3,15,540,440,1,100
"S20041202","dutch","standard",22,4,10,525,440,1,85
"S20041202","dutch","standard",22,4,16,405,-1,0,0
"S20041202","dutch","standard",22,4,17,240,-1,0,0
"S20041202","dutch","standard",22,5,9,285,-1,0,0
"S20041202","dutch","standard",22,5,12,435,330,1,105
"S20041202","dutch","standard",22,5,13,495,330,0,0
"S20041202","dutch","standard",23,0,4,60,-1,0,0
"S20041202","dutch","standard",23,0,7,360,-1,0,0
"S20041202","dutch","standard",23,0,8,450,400,1,50
"S20041202","dutch","standard",23,1,0,165,-1,0,0
"S20041202","dutch","standard",23,1,1,495,440,1,55
"S20041202","dutch","standard",23,1,2,90,-1,0,0
"S20041202","dutch","standard",23,2,3,480,350,1,130
"S20041202","dutch","standard",23,2,5,105,-1,0,0
"S20041202","dutch","standard",23,2,6,105,-1,0,0
"S20041202","dutch","standard",23,3,10,495,430,1,65
"S20041202","dutch","standard",23,3,12,435,-1,0,0
"S20041202","dutch","standard",23,3,13,180,-1,0,0
"S20041202","dutch","standard",23,4,9,435,290,1,145
"S20041202","dutch","standard",23,4,14,300,-1,0,0
"S20041202","dutch","standard",23,4,15,195,-1,0,0
"S20041202","dutch","standard",23,5,11,90,-1,0,0
"S20041202","dutch","standard",23,5,16,540,440,1,100
"S20041202","dutch","standard",23,5,17,465,-1,0,0
"S20041202","dutch","standard",24,0,0,450,380,1,70
"S20041202","dutch","standard",24,0,4,360,-1,0,0
"S20041202","dutch","standard",24,0,8,465,-1,0,0
"S20041202","dutch","standard",24,1,1,390,370,1,20
"S20041202","dutch","standard",24,1,6,75,-1,0,0
"S20041202","dutch","standard",24,1,7,300,-1,0,0
"S20041202","dutch","standard",24,2,2,135,-1,0,0
"S20041202","dutch","standard",24,2,3,345,-1,0,0
"S20041202","dutch","standard",24,2,5,435,380,1,55
"S20041202","dutch","standard",24,3,14,75,-1,0,0
"S20041202","dutch","standard",24,3,16,90,-1,0,0
"S20041202","dutch","standard",24,3,17,405,380,1,25
"S20041202","dutch","standard",24,4,9,330,-1,0,0
"S20041202","dutch","standard",24,4,13,420,380,1,40
"S20041202","dutch","standard",24,4,15,465,-1,0,0
"S20041202","dutch","standard",24,5,10,435,380,1,55
"S20041202","dutch","standard",24,5,11,195,-1,0,0
"S20041202","dutch","standard",24,5,12,390,-1,0,0
"S20041202","dutch","standard",25,0,5,420,390,1,30
"S20041202","dutch","standard",25,0,6,150,-1,0,0
"S20041202","dutch","standard",25,0,7,420,-1,0,0
"S20041202","dutch","standard",25,1,0,510,-1,0,0
"S20041202","dutch","standard",25,1,2,285,-1,0,0
"S20041202","dutch","standard",25,1,4,555,470,1,85
"S20041202","dutch","standard",25,2,1,285,-1,0,0
"S20041202","dutch","standard",25,2,3,540,390,1,150
"S20041202","dutch","standard",25,2,8,90,-1,0,0
"S20041202","dutch","standard",25,3,14,495,420,1,75
"S20041202","dutch","standard",25,3,15,60,-1,0,0
"S20041202","dutch","standard",25,3,16,345,-1,0,0
"S20041202","dutch","standard",25,4,10,60,-1,0,0
"S20041202","dutch","standard",25,4,11,270,250,1,20
"S20041202","dutch","standard",25,4,12,210,-1,0,0
"S20041202","dutch","standard",25,5,9,180,-1,0,0
"S20041202","dutch","standard",25,5,13,480,400,1,80
"S20041202","dutch","standard",25,5,17,225,-1,0,0
"S20041202","dutch","standard",26,0,6,15,-1,0,0
"S20041202","dutch","standard",26,0,7,270,-1,0,0
"S20041202","dutch","standard",26,0,8,465,400,1,65
"S20041202","dutch","standard",26,1,0,495,390,1,105
"S20041202","dutch","standard",26,1,1,210,-1,0,0
"S20041202","dutch","standard",26,1,3,375,-1,0,0
"S20041202","dutch","standard",26,2,2,135,-1,0,0
"S20041202","dutch","standard",26,2,4,450,380,1,70
"S20041202","dutch","standard",26,2,5,135,-1,0,0
"S20041202","dutch","standard",26,3,10,135,-1,0,0
"S20041202","dutch","standard",26,3,11,180,150,1,30
"S20041202","dutch","standard",26,3,16,120,-1,0,0
"S20041202","dutch","standard",26,4,9,165,150,1,15
"S20041202","dutch","standard",26,4,13,15,-1,0,0
"S20041202","dutch","standard",26,4,17,120,-1,0,0
"S20041202","dutch","standard",26,5,12,525,400,1,125
"S20041202","dutch","standard",26,5,14,525,-1,0,0
"S20041202","dutch","standard",26,5,15,360,-1,0,0
"S20041202","dutch","standard",27,0,3,375,400,1,-25
"S20041202","dutch","standard",27,0,4,330,-1,0,0
"S20041202","dutch","standard",27,0,7,300,-1,0,0
"S20041202","dutch","standard",27,1,1,165,-1,0,0
"S20041202","dutch","standard",27,1,2,480,380,1,100
"S20041202","dutch","standard",27,1,6,195,-1,0,0
"S20041202","dutch","standard",27,2,0,345,-1,0,0
"S20041202","dutch","standard",27,2,5,315,-1,0,0
"S20041202","dutch","standard",27,2,8,420,320,1,100
"S20041202","dutch","standard",27,3,9,60,-1,0,0
"S20041202","dutch","standard",27,3,14,30,-1,0,0
"S20041202","dutch","standard",27,3,15,315,260,1,55
"S20041202","dutch","standard",27,4,11,75,-1,0,0
"S20041202","dutch","standard",27,4,12,510,410,1,100
"S20041202","dutch","standard",27,4,17,60,-1,0,0
"S20041202","dutch","standard",27,5,10,285,-1,0,0
"S20041202","dutch","standard",27,5,13,585,410,1,175
"S20041202","dutch","standard",27,5,16,300,-1,0,0
"S20041202","dutch","standard",28,0,0,165,-1,0,0
"S20041202","dutch","standard",28,0,2,270,230,0,0
"S20041202","dutch","standard",28,0,3,345,230,1,115
"S20041202","dutch","standard",28,1,1,120,-1,0,0
"S20041202","dutch","standard",28,1,6,600,500,1,100
"S20041202","dutch","standard",28,1,7,225,-1,0,0
"S20041202","dutch","standard",28,2,4,315,250,1,65
"S20041202","dutch","standard",28,2,5,30,-1,0,0
"S20041202","dutch","standard",28,2,8,30,-1,0,0
"S20041202","dutch","standard",28,3,11,165,-1,0,0
"S20041202","dutch","standard",28,3,14,105,-1,0,0
"S20041202","dutch","standard",28,3,17,315,290,1,25
"S20041202","dutch","standard",28,4,10,420,-1,0,0
"S20041202","dutch","standard",28,4,15,165,-1,0,0
"S20041202","dutch","standard",28,4,16,435,380,1,55
"S20041202","dutch","standard",28,5,9,300,-1,0,0
"S20041202","dutch","standard",28,5,12,120,-1,0,0
"S20041202","dutch","standard",28,5,13,585,370,1,215
"S20041202","dutch","standard",29,0,2,495,380,1,115
"S20041202","dutch","standard",29,0,3,525,-1,0,0
"S20041202","dutch","standard",29,0,6,375,-1,0,0
"S20041202","dutch","standard",29,1,1,240,-1,0,0
"S20041202","dutch","standard",29,1,4,120,-1,0,0
"S20041202","dutch","standard",29,1,7,570,450,1,120
"S20041202","dutch","standard",29,2,0,255,-1,0,0
"S20041202","dutch","standard",29,2,5,405,-1,0,0
"S20041202","dutch","standard",29,2,8,525,450,1,75
"S20041202","dutch","standard",29,3,9,540,430,0,0
"S20041202","dutch","standard",29,3,10,450,430,1,20
"S20041202","dutch","standard",29,3,17,105,-1,0,0
"S20041202","dutch","standard",29,4,12,555,-1,0,0
"S20041202","dutch","standard",29,4,14,555,450,1,105
"S20041202","dutch","standard",29,4,16,525,-1,0,0
"S20041202","dutch","standard",29,5,11,600,500,1,100
"S20041202","dutch","standard",29,5,13,75,-1,0,0
"S20041202","dutch","standard",29,5,15,150,-1,0,0
"S20041202","dutch","standard",30,0,0,510,400,1,110
"S20041202","dutch","standard",30,0,2,150,-1,0,0
"S20041202","dutch","standard",30,0,6,270,-1,0,0
"S20041202","dutch","standard",30,1,3,75,-1,0,0
"S20041202","dutch","standard",30,1,5,480,400,1,80
"S20041202","dutch","standard",30,1,8,270,-1,0,0
"S20041202","dutch","standard",30,2,1,510,450,1,60
"S20041202","dutch","standard",30,2,4,405,-1,0,0
"S20041202","dutch","standard",30,2,7,150,-1,0,0
"S20041202","dutch","standard",30,3,9,150,-1,0,0
"S20041202","dutch","standard",30,3,10,465,400,1,65
"S20041202","dutch","standard",30,3,15,90,-1,0,0
"S20041202","dutch","standard",30,4,12,90,-1,0,0
"S20041202","dutch","standard",30,4,14,240,-1,0,0
"S20041202","dutch","standard",30,4,16,405,360,1,45
"S20041202","dutch","standard",30,5,11,405,360,1,45
"S20041202","dutch","standard",30,5,13,315,-1,0,0
"S20041202","dutch","standard",30,5,17,390,-1,0,0
"S20041202","dutch","standard",31,0,4,495,390,1,105
"S20041202","dutch","standard",31,0,6,135,-1,0,0
"S20041202","dutch","standard",31,0,8,180,-1,0,0
"S20041202","dutch","standard",31,1,1,465,420,1,45
"S20041202","dutch","standard",31,1,2,600,-1,0,0
"S20041202","dutch","standard",31,1,7,405,-1,0,0
"S20041202","dutch","standard",31,2,0,120,-1,0,0
"S20041202","dutch","standard",31,2,3,225,-1,0,0
"S20041202","dutch","standard",31,2,5,405,320,1,85
"S20041202","dutch","standard",31,3,11,540,470,1,70
"S20041202","dutch","standard",31,3,13,120,-1,0,0
"S20041202","dutch","standard",31,3,14,210,-1,0,0
"S20041202","dutch","standard",31,4,9,285,-1,0,0
"S20041202","dutch","standard",31,4,16,210,-1,0,0
"S20041202","dutch","standard",31,4,17,525,450,1,75
"S20041202","dutch","standard",31,5,10,90,-1,0,0
"S20041202","dutch","standard",31,5,12,30,-1,0,0
"S20041202","dutch","standard",31,5,15,270,220,1,50
"S20041202","dutch","standard",32,0,2,570,450,1,120
"S20041202","dutch","standard",32,0,5,30,-1,0,0
"S20041202","dutch","standard",32,0,8,480,-1,0,0
"S20041202","dutch","standard",32,1,1,255,-1,0,0
"S20041202","dutch","standard",32,1,3,225,420,1,-195
"S20041202","dutch","standard",32,1,7,315,-1,0,0
"S20041202","dutch","standard",32,2,0,540,400,1,140
"S20041202","dutch","standard",32,2,4,210,-1,0,0
"S20041202","dutch","standard",32,2,6,210,-1,0,0
"S20041202","dutch","standard",32,3,12,165,-1,0,0
"S20041202","dutch","standard",32,3,15,240,-1,0,0
"S20041202","dutch","standard",32,3,17,450,400,1,50
"S20041202","dutch","standard",32,4,10,120,-1,0,0
"S20041202","dutch","standard",32,4,13,30,-1,0,0
"S20041202","dutch","standard",32,4,14,495,440,1,55
"S20041202","dutch","standard",32,5,9,45,-1,0,0
"S20041202","dutch","standard",32,5,11,555,460,1,95
"S20041202","dutch","standard",32,5,16,360,-1,0,0
"S20041202","dutch","standard",33,0,2,450,380,1,70
"S20041202","dutch","standard",33,0,5,15,-1,0,0
"S20041202","dutch","standard",33,0,7,330,-1,0,0
"S20041202","dutch","standard",33,1,1,120,-1,0,0
"S20041202","dutch","standard",33,1,3,45,-1,0,0
"S20041202","dutch","standard",33,1,4,495,350,1,145
"S20041202","dutch","standard",33,2,0,135,-1,0,0
"S20041202","dutch","standard",33,2,6,180,-1,0,0
"S20041202","dutch","standard",33,2,8,375,320,1,55
"S20041202","dutch","standard",33,3,9,540,390,1,150
"S20041202","dutch","standard",33,3,10,240,-1,0,0
"S20041202","dutch","standard",33,3,15,495,390,0,0
"S20041202","dutch","standard",33,4,11,435,-1,0,0
"S20041202","dutch","standard",33,4,12,525,440,1,85
"S20041202","dutch","standard",33,4,13,15,-1,0,0
"S20041202","dutch","standard",33,5,14,210,-1,0,0
"S20041202","dutch","standard",33,5,16,360,310,1,50
"S20041202","dutch","standard",33,5,17,75,-1,0,0
"S20041202","dutch","standard",34,0,1,255,-1,0,0
"S20041202","dutch","standard",34,0,4,15,-1,0,0
"S20041202","dutch","standard",34,0,7,300,270,1,30
"S20041202","dutch","standard",34,1,0,195,170,0,0
"S20041202","dutch","standard",34,1,2,195,170,1,25
"S20041202","dutch","standard",34,1,6,150,-1,0,0
"S20041202","dutch","standard",34,2,3,150,270,1,-120
"S20041202","dutch","standard",34,2,5,195,-1,0,0
"S20041202","dutch","standard",34,2,8,270,-1,0,0
"S20041202","dutch","standard",34,3,10,15,-1,0,0
"S20041202","dutch","standard",34,3,12,15,-1,0,0
"S20041202","dutch","standard",34,3,16,465,410,1,55
"S20041202","dutch","standard",34,4,11,255,-1,0,0
"S20041202","dutch","standard",34,4,15,435,-1,0,0
"S20041202","dutch","standard",34,4,17,555,440,1,115
"S20041202","dutch","standard",34,5,9,585,420,1,165
"S20041202","dutch","standard",34,5,13,510,-1,0,0
"S20041202","dutch","standard",34,5,14,420,-1,0,0
"S20041202","dutch","standard",35,0,0,240,-1,0,0
"S20041202","dutch","standard",35,0,1,600,490,1,110
"S20041202","dutch","standard",35,0,5,435,-1,0,0
"S20041202","dutch","standard",35,1,4,90,-1,0,0
"S20041202","dutch","standard",35,1,6,75,-1,0,0
"S20041202","dutch","standard",35,1,7,75,70,1,5
"S20041202","dutch","standard",35,2,2,570,390,1,180
"S20041202","dutch","standard",35,2,3,300,-1,0,0
"S20041202","dutch","standard",35,2,8,135,-1,0,0
"S20041202","dutch","standard",35,3,11,60,-1,0,0
"S20041202","dutch","standard",35,3,13,465,390,1,75
"S20041202","dutch","standard",35,3,16,45,-1,0,0
"S20041202","dutch","standard",35,4,9,495,350,1,145
"S20041202","dutch","standard",35,4,15,135,-1,0,0
"S20041202","dutch","standard",35,4,17,495,350,0,0
"S20041202","dutch","standard",35,5,10,420,390,1,30
"S20041202","dutch","standard",35,5,12,315,-1,0,0
"S20041202","dutch","standard",35,5,14,30,-1,0,0
"S20041202","dutch","standard",36,0,0,255,-1,0,0
"S20041202","dutch","standard",36,0,2,210,-1,0,0
"S20041202","dutch","standard",36,0,5,570,430,1,140
"S20041202","dutch","standard",36,1,3,30,-1,0,0
"S20041202","dutch","standard",36,1,7,390,290,1,100
"S20041202","dutch","standard",36,1,8,330,-1,0,0
"S20041202","dutch","standard",36,2,1,90,-1,0,0
"S20041202","dutch","standard",36,2,4,90,-1,0,0
"S20041202","dutch","standard",36,2,6,570,430,1,140
"S20041202","dutch","standard",36,3,9,480,350,1,130
"S20041202","dutch","standard",36,3,11,15,-1,0,0
"S20041202","dutch","standard",36,3,12,405,-1,0,0
"S20041202","dutch","standard",36,4,14,180,-1,0,0
"S20041202","dutch","standard",36,4,15,255,-1,0,0
"S20041202","dutch","standard",36,4,17,585,430,1,155
"S20041202","dutch","standard",36,5,10,555,450,1,105
"S20041202","dutch","standard",36,5,13,330,-1,0,0
"S20041202","dutch","standard",36,5,16,210,-1,0,0
"S20041202","dutch","standard",37,0,1,495,450,1,45
"S20041202","dutch","standard",37,0,3,255,-1,0,0
"S20041202","dutch","standard",37,0,6,30,-1,0,0
"S20041202","dutch","standard",37,1,2,480,-1,0,0
"S20041202","dutch","standard",37,1,7,555,470,1,85
"S20041202","dutch","standard",37,1,8,165,-1,0,0
"S20041202","dutch","standard",37,2,0,525,420,1,105
"S20041202","dutch","standard",37,2,4,120,-1,0,0
"S20041202","dutch","standard",37,2,5,240,-1,0,0
"S20041202","dutch","standard",37,3,11,15,-1,0,0
"S20041202","dutch","standard",37,3,13,195,-1,0,0
"S20041202","dutch","standard",37,3,14,600,480,1,120
"S20041202","dutch","standard",37,4,15,45,-1,0,0
"S20041202","dutch","standard",37,4,16,210,-1,0,0
"S20041202","dutch","standard",37,4,17,315,280,1,35
"S20041202","dutch","standard",37,5,9,135,-1,0,0
"S20041202","dutch","standard",37,5,10,225,-1,0,0
"S20041202","dutch","standard",37,5,12,600,480,1,120
"S20041202","dutch","standard",38,0,0,435,-1,0,0
"S20041202","dutch","standard",38,0,7,120,-1,0,0
"S20041202","dutch","standard",38,0,8,570,480,1,90
"S20041202","dutch","standard",38,1,1,345,-1,0,0
"S20041202","dutch","standard",38,1,4,540,420,1,120
"S20041202","dutch","standard",38,1,5,555,-1,0,0
"S20041202","dutch","standard",38,2,2,15,-1,0,0
"S20041202","dutch","standard",38,2,3,315,-1,0,0
"S20041202","dutch","standard",38,2,6,525,420,1,105
"S20041202","dutch","standard",38,3,11,600,500,1,100
"S20041202","dutch","standard",38,3,16,210,-1,0,0
"S20041202","dutch","standard",38,3,17,210,-1,0,0
"S20041202","dutch","standard",38,4,12,165,-1,0,0
"S20041202","dutch","standard",38,4,13,165,120,1,45
"S20041202","dutch","standard",38,4,14,120,-1,0,0
"S20041202","dutch","standard",38,5,9,285,-1,0,0
"S20041202","dutch","standard",38,5,10,570,480,1,90
"S20041202","dutch","standard",38,5,15,255,-1,0,0
"S20041202","dutch","standard",39,0,0,600,480,1,120
"S20041202","dutch","standard",39,0,1,540,480,0,0
"S20041202","dutch","standard",39,0,4,270,-1,0,0
"S20041202","dutch","standard",39,1,2,90,-1,0,0
"S20041202","dutch","standard",39,1,3,375,300,1,75
"S20041202","dutch","standard",39,1,6,30,-1,0,0
"S20041202","dutch","standard",39,2,5,510,-1,0,0
"S20041202","dutch","standard",39,2,7,135,-1,0,0
"S20041202","dutch","standard",39,2,8,525,470,1,55
"S20041202","dutch","standard",39,3,10,135,-1,0,0
"S20041202","dutch","standard",39,3,11,585,480,1,105
"S20041202","dutch","standard",39,3,16,300,-1,0,0
"S20041202","dutch","standard",39,4,9,315,-1,0,0
"S20041202","dutch","standard",39,4,12,510,420,1,90
"S20041202","dutch","standard",39,4,14,105,-1,0,0
"S20041202","dutch","standard",39,5,13,180,-1,0,0
"S20041202","dutch","standard",39,5,15,555,-1,0,0
"S20041202","dutch","standard",39,5,17,510,470,1,40
"S20041202","dutch","standard",40,0,3,510,390,1,120
"S20041202","dutch","standard",40,0,6,285,-1,0,0
"S20041202","dutch","standard",40,0,8,285,-1,0,0
"S20041202","dutch","standard",40,1,4,60,-1,0,0
"S20041202","dutch","standard",40,1,5,15,-1,0,0
"S20041202","dutch","standard",40,1,7,180,150,1,30
"S20041202","dutch","standard",40,2,0,210,-1,0,0
"S20041202","dutch","standard",40,2,1,540,460,1,80
"S20041202","dutch","standard",40,2,2,540,-1,0,0
"S20041202","dutch","standard",40,3,14,300,-1,0,0
"S20041202","dutch","standard",40,3,15,540,440,1,100
"S20041202","dutch","standard",40,3,16,30,-1,0,0
"S20041202","dutch","standard",40,4,10,345,-1,0,0
"S20041202","dutch","standard",40,4,11,420,360,1,60
"S20041202","dutch","standard",40,4,17,150,-1,0,0
"S20041202","dutch","standard",40,5,9,240,-1,0,0
"S20041202","dutch","standard",40,5,12,90,-1,0,0
"S20041202","dutch","standard",40,5,13,450,400,1,50
"S20041202","dutch","standard",41,0,0,165,150,1,15
"S20041202","dutch","standard",41,0,2,60,-1,0,0
"S20041202","dutch","standard",41,0,7,135,-1,0,0
"S20041202","dutch","standard",41,1,4,570,-1,0,0
"S20041202","dutch","standard",41,1,6,480,380,1,100
"S20041202","dutch","standard",41,1,8,270,-1,0,0
"S20041202","dutch","standard",41,2,1,30,-1,0,0
"S20041202","dutch","standard",41,2,3,15,-1,0,0
"S20041202","dutch","standard",41,2,5,405,380,1,25
"S20041202","dutch","standard",41,3,10,90,-1,0,0
"S20041202","dutch","standard",41,3,11,495,450,1,45
"S20041202","dutch","standard",41,3,14,165,-1,0,0
"S20041202","dutch","standard",41,4,13,480,-1,0,0
"S20041202","dutch","standard",41,4,15,210,-1,0,0
"S20041202","dutch","standard",41,4,17,420,380,1,40
"S20041202","dutch","standard",41,5,9,75,-1,0,0
"S20041202","dutch","standard",41,5,12,180,-1,0,0
"S20041202","dutch","standard",41,5,16,120,110,1,10
"S20041202","dutch","standard",42,0,3,345,-1,0,0
"S20041202","dutch","standard",42,0,5,525,430,1,95
"S20041202","dutch","standard",42,0,7,30,-1,0,0
"S20041202","dutch","standard",42,1,1,405,-1,0,0
"S20041202","dutch","standard",42,1,6,240,-1,0,0
"S20041202","dutch","standard",42,1,8,525,450,1,75
"S20041202","dutch","standard",42,2,0,240,-1,0,0
"S20041202","dutch","standard",42,2,2,165,-1,0,0
"S20041202","dutch","standard",42,2,4,570,400,1,170
"S20041202","dutch","standard",42,3,9,525,360,1,165
"S20041202","dutch","standard",42,3,13,15,-1,0,0
"S20041202","dutch","standard",42,3,17,60,-1,0,0
"S20041202","dutch","standard",42,4,12,585,500,1,85
"S20041202","dutch","standard",42,4,14,480,-1,0,0
"S20041202","dutch","standard",42,4,16,450,-1,0,0
"S20041202","dutch","standard",42,5,10,450,400,1,50
"S20041202","dutch","standard",42,5,11,30,-1,0,0
"S20041202","dutch","standard",42,5,15,60,-1,0,0
"S20041202","dutch","standard",43,0,4,570,390,1,180
"S20041202","dutch","standard",43,0,6,390,-1,0,0
"S20041202","dutch","standard",43,0,8,210,-1,0,0
"S20041202","dutch","standard",43,1,2,390,-1,0,0
"S20041202","dutch","standard",43,1,3,255,-1,0,0
"S20041202","dutch","standard",43,1,5,390,350,1,40
"S20041202","dutch","standard",43,2,0,375,-1,0,0
"S20041202","dutch","standard",43,2,1,495,440,1,55
"S20041202","dutch","standard",43,2,7,480,-1,0,0
"S20041202","dutch","standard",43,3,12,150,-1,0,0
"S20041202","dutch","standard",43,3,14,300,280,1,20
"S20041202","dutch","standard",43,3,17,105,-1,0,0
"S20041202","dutch","standard",43,4,9,135,-1,0,0
"S20041202","dutch","standard",43,4,10,375,340,1,35
"S20041202","dutch","standard",43,4,11,75,-1,0,0
"S20041202","dutch","standard",43,5,13,390,350,1,40
"S20041202","dutch","standard",43,5,15,390,-1,0,0
"S20041202","dutch","standard",43,5,16,105,-1,0,0
"S20041202","dutch","standard",44,0,3,195,-1,0,0
"S20041202","dutch","standard",44,0,6,495,350,1,145
"S20041202","dutch","standard",44,0,7,450,-1,0,0
"S20041202","dutch","standard",44,1,1,375,-1,0,0
"S20041202","dutch","standard",44,1,4,390,-1,0,0
"S20041202","dutch","standard",44,1,8,525,450,1,75
"S20041202","dutch","standard",44,2,0,300,-1,0,0
"S20041202","dutch","standard",44,2,2,390,310,1,80
"S20041202","dutch","standard",44,2,5,60,-1,0,0
"S20041202","dutch","standard",44,3,10,300,-1,0,0
"S20041202","dutch","standard",44,3,11,405,330,1,75
"S20041202","dutch","standard",44,3,16,315,-1,0,0
"S20041202","dutch","standard",44,4,14,555,-1,0,0
"S20041202","dutch","standard",44,4,15,600,500,1,100
"S20041202","dutch","standard",44,4,17,225,-1,0,0
"S20041202","dutch","standard",44,5,9,315,-1,0,0
"S20041202","dutch","standard",44,5,12,330,-1,0,0
"S20041202","dutch","standard",44,5,13,360,330,1,30
"S20041202","dutch","standard",45,0,3,315,420,1,-105
"S20041202","dutch","standard",45,0,6,375,-1,0,0
"S20041202","dutch","standard",45,0,8,15,-1,0,0
"S20041202","dutch","standard",45,1,0,360,-1,0,0
"S20041202","dutch","standard",45,1,4,540,400,1,140
"S20041202","dutch","standard",45,1,7,495,-1,0,0
"S20041202","dutch","standard",45,2,1,225,160,1,65
"S20041202","dutch","standard",45,2,2,30,-1,0,0
"S20041202","dutch","standard",45,2,5,210,-1,0,0
"S20041202","dutch","standard",45,3,12,255,-1,0,0
"S20041202","dutch","standard",45,3,13,480,400,1,80
"S20041202","dutch","standard",45,3,15,210,-1,0,0
"S20041202","dutch","standard",45,4,9,495,410,1,85
"S20041202","dutch","standard",45,4,11,90,-1,0,0
"S20041202","dutch","standard",45,4,17,375,-1,0,0
"S20041202","dutch","standard",45,5,10,180,160,1,20
"S20041202","dutch","standard",45,5,14,105,-1,0,0
"S20041202","dutch","standard",45,5,16,45,-1,0,0
"S20041202","dutch","standard",46,0,4,270,-1,0,0
"S20041202","dutch","standard",46,0,6,45,-1,0,0
"S20041202","dutch","standard",46,0,8,390,340,1,50
"S20041202","dutch","standard",46,1,0,495,-1,0,0
"S20041202","dutch","standard",46,1,1,465,-1,0,0
"S20041202","dutch","standard",46,1,7,570,440,1,130
"S20041202","dutch","standard",46,2,2,240,-1,0,0
"S20041202","dutch","standard",46,2,3,225,-1,0,0
"S20041202","dutch","standard",46,2,5,495,430,1,65
"S20041202","dutch","standard",46,3,10,510,460,1,50
"S20041202","dutch","standard",46,3,11,285,-1,0,0
"S20041202","dutch","standard",46,3,16,30,-1,0,0
"S20041202","dutch","standard",46,4,14,270,-1,0,0
"S20041202","dutch","standard",46,4,15,135,-1,0,0
"S20041202","dutch","standard",46,4,17,585,450,1,135
"S20041202","dutch","standard",46,5,9,15,-1,0,0
"S20041202","dutch","standard",46,5,12,480,380,1,100
"S20041202","dutch","standard",46,5,13,15,-1,0,0
"S20041202","dutch","standard",47,0,0,375,350,1,25
"S20041202","dutch","standard",47,0,4,180,-1,0,0
"S20041202","dutch","standard",47,0,6,120,-1,0,0
"S20041202","dutch","standard",47,1,3,90,-1,0,0
"S20041202","dutch","standard",47,1,5,165,140,1,25
"S20041202","dutch","standard",47,1,7,135,-1,0,0
"S20041202","dutch","standard",47,2,1,495,440,1,55
"S20041202","dutch","standard",47,2,2,30,-1,0,0
"S20041202","dutch","standard",47,2,8,435,-1,0,0
"S20041202","dutch","standard",47,3,10,525,-1,0,0
"S20041202","dutch","standard",47,3,11,30,-1,0,0
"S20041202","dutch","standard",47,3,12,600,470,1,130
"S20041202","dutch","standard",47,4,13,150,-1,0,0
"S20041202","dutch","standard",47,4,16,510,420,1,90
"S20041202","dutch","standard",47,4,17,585,-1,0,0
"S20041202","dutch","standard",47,5,9,90,-1,0,0
"S20041202","dutch","standard",47,5,14,45,-1,0,0
"S20041202","dutch","standard",47,5,15,495,390,1,105
"S20041202","dutch","standard",48,0,0,45,-1,0,0
"S20041202","dutch","standard",48,0,3,480,360,1,120
"S20041202","dutch","standard",48,0,7,240,-1,0,0
"S20041202","dutch","standard",48,1,4,270,200,1,70
"S20041202","dutch","standard",48,1,5,15,-1,0,0
"S20041202","dutch","standard",48,1,8,15,-1,0,0
"S20041202","dutch","standard",48,2,1,30,-1,0,0
"S20041202","dutch","standard",48,2,2,45,-1,0,0
"S20041202","dutch","standard",48,2,6,240,130,1,110
"S20041202","dutch","standard",48,3,12,315,-1,0,0
"S20041202","dutch","standard",48,3,14,420,350,1,70
"S20041202","dutch","standard",48,3,16,15,-1,0,0
"S20041202","dutch","standard",48,4,9,15,-1,0,0
"S20041202","dutch","standard",48,4,10,30,-1,0,0
"S20041202","dutch","standard",48,4,11,420,360,1,60
"S20041202","dutch","standard",48,5,13,420,360,0,0
"S20041202","dutch","standard",48,5,15,315,-1,0,0
"S20041202","dutch","standard",48,5,17,375,360,1,15
"S20041202","dutch","standard",49,0,0,180,-1,0,0
"S20041202","dutch","standard",49,0,1,405,370,1,35
"S20041202","dutch","standard",49,0,8,30,-1,0,0
"S20041202","dutch","standard",49,1,3,135,-1,0,0
"S20041202","dutch","standard",49,1,4,210,-1,0,0
"S20041202","dutch","standard",49,1,6,315,190,1,125
"S20041202","dutch","standard",49,2,2,435,370,0,0
"S20041202","dutch","standard",49,2,5,315,-1,0,0
"S20041202","dutch","standard",49,2,7,435,370,1,65
"S20041202","dutch","standard",49,3,10,285,270,1,15
"S20041202","dutch","standard",49,3,12,45,-1,0,0
"S20041202","dutch","standard",49,3,16,105,-1,0,0
"S20041202","dutch","standard",49,4,11,195,-1,0,0
"S20041202","dutch","standard",49,4,15,255,200,1,55
"S20041202","dutch","standard",49,4,17,15,-1,0,0
"S20041202","dutch","standard",49,5,9,165,-1,0,0
"S20041202","dutch","standard",49,5,13,405,370,1,35
"S20041202","dutch","standard",49,5,14,210,-1,0,0
"S20041202","dutch","standard",50,0,0,360,310,1,50
"S20041202","dutch","standard",50,0,1,195,-1,0,0
"S20041202","dutch","standard",50,0,6,15,-1,0,0
"S20041202","dutch","standard",50,1,2,15,-1,0,0
"S20041202","dutch","standard",50,1,3,90,-1,0,0
"S20041202","dutch","standard",50,1,8,180,160,1,20
"S20041202","dutch","standard",50,2,4,105,-1,0,0
"S20041202","dutch","standard",50,2,5,285,-1,0,0
"S20041202","dutch","standard",50,2,7,345,290,1,55
